Time (s),Linear Acceleration x (m/s^2),Linear Acceleration y (m/s^2),Linear Acceleration z (m/s^2),Absolute acceleration (m/s^2)
0.003770999989,-0.4404161624364706,-4.797579074858824,-1.3888501057847058,8.913854468960784
0.01376199999,-0.4404161624364706,-4.797579074858824,-1.3888501057847058,8.913854468960784
0.02375399999,-0.4404161624364706,-4.797579074858824,-1.3888501057847058,8.913854468960784
0.03374499999,-0.4404161624364706,-4.797579074858824,-1.3888501057847058,8.913854468960784
0.043737,-0.4404161624364706,-4.797579074858824,-1.3888501057847058,8.913854468960784
0.053728,-0.4404161624364706,-4.797579074858824,-1.3888501057847058,8.913854468960784
0.06372000001,-0.4404161624364706,-4.797579074858824,-1.3888501057847058,8.913854468960784
0.073711,-0.4404161624364706,-4.797579074858824,-1.3888501057847058,8.913854468960784
0.08370300001,-0.4404161624364706,-4.797579074858824,-1.3888501057847058,8.913854468960784
0.09369400001,-0.4404161624364706,-4.797579074858824,-1.3888501057847058,8.913854468960784
0.103686,-0.4404161624364706,-4.797579074858824,-1.3888501057847058,8.913854468960784
0.113677,-0.4404161624364706,-4.797579074858824,-1.3888501057847058,8.913854468960784
0.123669,-0.4404161624364706,-4.797579074858824,-1.3888501057847058,8.913854468960784
0.13366,-0.4404161624364706,-4.797579074858824,-1.3888501057847058,8.913854468960784
0.143652,-0.4404161624364706,-4.797579074858824,-1.3888501057847058,8.913854468960784
0.153643,-0.4404161624364706,-4.797579074858824,-1.3888501057847058,8.913854468960784
0.163635,-0.4404161624364706,-4.797579074858824,-1.3888501057847058,8.913854468960784
0.173626,-0.4404161624364706,-4.797579074858824,-1.3888501057847058,8.913854468960784
0.183618,-0.4404161624364706,-4.797579074858824,-1.3888501057847058,8.913854468960784
0.193609,-0.4404161624364706,-4.797579074858824,-1.3888501057847058,8.913854468960784
0.203601,-0.4404161624364706,-4.797579074858824,-1.3888501057847058,8.913854468960784
0.213592,-0.4404161624364706,-4.797579074858824,-1.3888501057847058,8.913854468960784
0.223584,-0.4404161624364706,-4.797579074858824,-1.3888501057847058,8.913854468960784
0.233575,-0.4404161624364706,-4.797579074858824,-1.3888501057847058,8.913854468960784
0.243567,-0.4404161624364706,-4.797579074858824,-1.3888501057847058,8.913854468960784
0.253558,-0.4404161624364706,-4.797579074858824,-1.3888501057847058,8.913854468960784
0.26355,-0.4404161624364706,-4.797579074858824,-1.3888501057847058,8.913854468960784
0.2735398333,-0.4404161624364706,-4.797579074858824,-1.3888501057847058,8.913854468960784
0.2835318333,-0.4404161624364706,-4.797579074858824,-1.3888501057847058,8.913854468960784
0.2935228333,-0.4404161624364706,-4.797579074858824,-1.3888501057847058,8.913854468960784
0.3035148333,-0.4404161624364706,-4.797579074858824,-1.3888501057847058,8.913854468960784
0.3135058333,-0.4404161624364706,-4.797579074858824,-1.3888501057847058,8.913854468960784
0.3234978333,-0.4404161624364706,-4.797579074858824,-1.3888501057847058,8.913854468960784
0.3334888333,-0.4404161624364706,-4.797579074858824,-1.3888501057847058,8.913854468960784
0.3434808333,-0.4404161624364706,-4.797579074858824,-1.3888501057847058,8.913854468960784
0.3534728333,-0.4404161624364706,-4.797579074858824,-1.3888501057847058,8.913854468960784
0.3634638333,-0.4404161624364706,-4.797579074858824,-1.3888501057847058,8.913854468960784
0.3734558333,-0.4404161624364706,-4.797579074858824,-1.3888501057847058,8.913854468960784
0.3834468333,-0.4404161624364706,-4.797579074858824,-1.3888501057847058,8.913854468960784
0.3934388333,-0.4404161624364706,-4.797579074858824,-1.3888501057847058,8.913854468960784
0.4034298333,-0.4404161624364706,-4.797579074858824,-1.3888501057847058,8.913854468960784
0.4134218333,-0.4404161624364706,-4.797579074858824,-1.3888501057847058,8.913854468960784
0.4234128333,-0.4404161624364706,-4.797579074858824,-1.3888501057847058,8.913854468960784
0.4334048333,-0.4404161624364706,-4.797579074858824,-1.3888501057847058,8.913854468960784
0.4433958333,-0.4404161624364706,-4.797579074858824,-1.3888501057847058,8.913854468960784
0.4533878333,-0.4404161624364706,-4.797579074858824,-1.3888501057847058,8.913854468960784
0.4633788333,-0.4404161624364706,-4.797579074858824,-1.3888501057847058,8.913854468960784
0.4733708333,-0.4404161624364706,-4.797579074858824,-1.3888501057847058,8.913854468960784
0.4833618333,-0.4404161624364706,-4.797579074858824,-1.3888501057847058,8.913854468960784
0.4933538333,-0.4404161624364706,-4.797579074858824,-1.3888501057847058,8.913854468960784
0.5033448333,-0.4404161624364706,-4.797579074858824,-1.3888501057847058,8.913854468960784
0.5133368333,-0.09558107918156865,-4.882033230943137,-1.1198411190160784,9.290997703352941
0.5233278333,0.3108850213870588,-4.926435220982353,-0.7906342216043137,9.713114725686273
0.5333198333,0.7852420221909804,-4.972676813845098,-0.4294500483101961,10.182582126705883
0.5433108333,1.3218692527635294,-4.9730937145901954,-0.05909284332980391,10.713260463058823
0.5533028333,1.8925177536725488,-4.894590344396079,0.29951370529764704,11.287765125784315
0.5632938333,2.4832723670176473,-4.760138143456863,0.6318611650819608,11.887150869588236
0.5732858333,3.0596837260568632,-4.582768136337255,0.8920736234996077,12.492247060647058
0.5832768333,3.6145414973117647,-4.397317904901961,0.9676475442839215,12.893991990058826
0.5932688333,4.045712857754903,-4.195910054431373,0.9748985503035295,13.208145788784313
0.6032598333,4.381834451676471,-3.9644179555294117,1.0310921042054901,13.506081374764708
0.6132518333,4.6982174177843135,-3.7245429213725494,1.1485226418937255,13.825490736156862
0.6232428333,4.983830192521569,-3.4967049911568626,1.2510989817427451,14.139945008137255
0.6332348333,5.232463385403921,-3.2840127740392155,1.2791727596407843,14.437241746607844
0.6432258333,5.445947895894117,-3.071722356735294,1.2166730037192157,14.688271594392157
0.6532178333,5.61719157024902,-2.8556972217058822,1.0834121271113726,14.902052352235293
0.6632088333,5.7448966418137255,-2.644940276723529,0.9244632856211763,15.117116906745098
0.6732008333,5.818992667486275,-2.475315663423529,0.7702625437564706,15.330859167509804
0.6831918333,5.829365567858823,-2.373518433533333,0.5897988722878431,15.518980712019609
0.6931838333,5.800663036562745,-2.3013687166509804,0.4469760553823529,15.643249539764705
0.7031748333,5.738191911919607,-2.216946410690196,0.3592943795686274,15.733694916647059
0.7131668333,5.635222518801961,-2.1297218868078427,0.2916548551490196,15.824497915431373
0.7231578333,5.469299235998039,-2.0768160975921566,0.2508495447960784,15.931412560215685
0.7331498333,5.313119991331373,-1.9776360427490196,0.30177645998039215,16.074831871568627
0.7431408333,5.376212216331373,-1.8751311449999999,0.35346878141176474,16.04190678372549
0.7531328333,5.3442294601156854,-1.9395306526862743,0.2435168440117647,16.07011258527451
0.7631238333,5.069180815468628,-2.0671767920588233,0.3553549212078431,15.879117892784313
0.7731158333,4.7638942008607845,-2.0796802745098035,0.5381421443254901,15.65769209617647
0.7831068333,4.58106538799804,-2.0186810545725486,0.6301881589686275,15.581247833666664
0.7930988333,4.580750263213726,-1.9507751780274507,0.589958535645098,15.535999181333333
0.8030898333,4.668538604841176,-1.8710180902764704,0.6138244737215686,15.424354921392156
0.8130818333,4.6196268064294115,-1.8394323829431374,0.7770124834862746,15.383800078274511
0.8230728333,4.608091333390196,-1.7246632569823526,0.983665403917647,15.274453479470587
0.8330648333,4.655873656115687,-1.459595488472549,1.2434395390549018,15.156044638568627
0.8430558333,4.670123744860784,-1.3970216820607841,1.505495567290196,15.066249264764705
0.8530478333,4.733657549350981,-1.4342744075509803,1.7068021548784313,15.029108653784313
0.8630388333,4.869559842566667,-1.4467365440215685,1.8902558402058824,14.957484221235292
0.8730308333,5.04215222162549,-1.3626554747862745,2.0793566804294117,14.806317564392158
0.8830218333,5.2032601417431374,-1.1693840965313727,2.2639494779000002,14.548895616352938
0.8930138333,5.3585761195999995,-0.8690605871254901,2.372280825096078,14.237291925470588
0.9030048333,5.567558622345097,-0.44356425314509806,2.4395810906058824,13.996436461490196
0.9129968333,5.8895574620509805,-0.1114503837745098,2.497271388409804,13.841735930509804
0.9229878333,6.213976235031373,0.1348214411666667,2.4640245214882355,13.780142026588235
0.9329798333,6.495888513443137,0.4100623330372549,2.405282865645098,13.718034780117646
0.9429708333,6.7493956257764705,0.7508853319392156,2.3132995939,13.663942826392155
0.9529628333,6.99274182505098,1.109263139782353,2.236342049809804,13.643606525607844
0.9629538333,7.206167879172549,1.399157154154902,2.199136651564706,13.621683070901959
0.9729458333,7.322962331505883,1.5086628572137255,2.1982708738392156,13.593163597392158
0.9829368333,7.388359666545098,1.5447613538803924,2.2022189138588235,13.60328082209804
0.9929288333,7.402200759780393,1.6194719047039217,2.2022273063294118,13.570538804254904
1.002920833,7.313291667427451,1.7060063052137253,2.1897020200745096,13.47437505309804
1.012911833,7.088354314545098,1.766065579507843,2.0919362303490194,13.26029657472549
1.022903833,6.761463866066667,1.8021688456647058,1.9458085327803922,12.967145576254902
1.032894833,6.319794901752942,1.8304913595392158,1.6725749097607843,12.562896765254902
1.042886833,5.6850905459294125,1.9155173962450978,1.3370922187411765,12.225873388
1.052877833,4.96323455294902,1.9735560333235294,0.9996772178196078,11.832484201529411
1.062869833,4.166149957458824,1.9486964813235297,0.6578137928588236,11.427561143686273
1.072860833,3.3086746078509806,1.7893250925196078,0.32965592040784303,11.057873595647058
1.082852833,2.4621760641254906,1.429355810127451,0.05349550232941172,10.775892462509805
1.092843833,1.7567658353019606,1.017780091617647,-0.2898054662588236,10.580758642509803
1.102835833,1.1096336354980392,0.7771895703823529,-0.5714824457490196,10.392374274862746
1.112826833,0.4457017888313726,0.5623169953235294,-0.7359592334352941,10.295126086039215
1.122818833,-0.11549897312941174,0.25288689465686276,-0.7115154299254902,10.219143176431372
1.132809833,-0.6018742119137255,-0.10461862330392156,-0.6424975448078433,10.159830332901961
1.142801833,-1.1801795699529412,-0.37959170699019606,-0.4804912744352942,10.205936037999999
1.152792833,-1.630252783090196,-0.6988805227352941,-0.38134274151372555,10.16073112682353
1.162784833,-1.8375111139274511,-0.9185172600196078,-0.3922617574941177,9.9514839762549
1.172775833,-2.129282875554902,-1.1552742779019607,-0.17994786669019616,9.874062084313726
1.182767833,-2.482965082652941,-1.4059538143333332,0.1729661652509803,9.993949243137255
1.192758833,-2.813246514947059,-1.5586971778235292,0.5012133281921568,10.110711949607843
1.202750833,-2.941293314709804,-1.764682822039216,0.5712339420156862,10.099591398686275
1.212741833,-2.8380944986352943,-2.0361305792745097,0.41487064189803907,10.242245763000001
1.222733833,-2.53403158022353,-2.303800416098039,0.04857988872156861,10.616027246470587
1.232724833,-2.024411182772549,-2.48883609427451,-0.46515066574901964,11.16460025298039
1.242716833,-1.5866324857137255,-2.557348298413725,-0.6275509867764707,11.217737325333333
1.252707833,-1.3028547163019606,-2.583196924119608,-0.6244511914509804,11.156814013980393
1.262699833,-1.1413335470666666,-2.5267973647862747,-0.4909011270392158,11.118984477666668
1.272691333,-1.073195776827451,-2.4903414885901958,-0.42946979499411764,11.043934727352942
1.282683333,-1.0481439087490196,-2.596964239256863,-0.5046631137392157,11.081129523
1.292674333,-1.033160120552941,-2.7572227882529408,-0.5424935298921569,11.163779595509805
1.302666333,-1.0275943451607843,-2.87219411315098,-0.5092064776862745,11.244351154509804
1.312657333,-1.0406014763764706,-2.916113237823529,-0.491220551254902,11.28671468690196
1.322649333,-1.1025031567294117,-2.7702195435143135,-0.5386096257843138,11.208129136450978
1.332640333,-1.2096674168666666,-2.6595155509947057,-0.6432572271176471,11.218894416803924
1.342632333,-1.2810090084156862,-2.6815754102692155,-0.7730452589078431,11.189284225117648
1.352623333,-1.2415494691294118,-2.5000113960143135,-0.8759227332137255,11.060215570058823
1.362615333,-1.2463490873058822,-2.2400142871182354,-0.8718387626450982,10.852562006274509
1.372606333,-1.3052104161588236,-2.028984479177059,-0.8110122419333333,10.67367850964706
1.382598333,-1.3463734700607843,-1.9540596680005884,-0.7776785209215687,10.59886364717647
1.392589333,-1.362663870192157,-2.01054234953,-0.7835267713078431,10.646836054333335
1.402581333,-1.3486591495196076,-2.1873501239358824,-0.7294378854137256,10.764487152784314
1.412572333,-1.3519221939509802,-2.497468671249608,-0.6728437886313725,10.849019723235294
1.422564333,-1.475679350127451,-2.689103069875098,-0.6514259765527451,10.845739631607843
1.432555333,-1.6361258756176469,-2.7583694616594117,-0.512391691062549,10.731595230490196
1.442547333,-1.7747509191666668,-2.829056967608431,-0.3262449616507843,10.617248166686275
1.452538333,-1.912612557009804,-2.91982180570647,-0.14360089784686272,10.466099515215687
1.462530333,-2.0523568606764706,-3.044178794549608,-0.052557164750392175,10.295272280705882
1.472522333,-2.1482909584019607,-3.159285522628039,-0.0655823076719608,10.215400367137255
1.482513333,-2.147474767343137,-3.1191496496672553,-0.13685383296607845,10.198369044352942
1.492505333,-2.110931561245098,-3.0440125157849014,-0.24585317582882354,10.16730015172549
1.502496333,-2.086229322284314,-3.0223422071770587,-0.38121862298568626,10.121484743039217
1.512488333,-2.1103050665,-2.9719479446868626,-0.5321207154562745,9.987965977921569
1.522479333,-2.1904947392843135,-2.8966953340299995,-0.6109393738288236,9.915437445352941
1.532471333,-2.2844535100215686,-2.92763863875549,-0.5774142367699999,9.988555986078431
1.542462333,-2.294503400472549,-3.000476796492745,-0.47861183896607845,10.072009087823531
1.552454333,-2.071787995198039,-3.0396976719241176,-0.4631798000641177,9.918126697156863
1.562445333,-1.794324238433333,-3.067331211806471,-0.45701901314254906,9.809412598470589
1.572437333,-1.471462418492157,-3.1110166083554898,-0.42768827877000004,9.671471367
1.582428333,-1.0848736409627449,-3.113290361220196,-0.39812954741313733,9.489002528372549
1.592420333,-0.6950592125313725,-2.985521063435882,-0.37926370245784313,9.249159269019607
1.602411333,-0.4530130270274509,-2.887244376220196,-0.17615481955588239,9.051821188196078
1.612403333,-0.22236485329803912,-2.9436869756515684,0.010377826091176452,8.92508318317647
1.622394333,0.16830795791764716,-2.932641688475098,0.02095637790686272,8.711548746980391
1.632386333,0.49687108830980403,-2.820445475063333,-0.16408247611274512,8.498041396450981
1.642377333,0.7454396308392157,-2.6619173120790194,-0.3580522756029412,8.264643622686275
1.652369333,1.0827262795450983,-2.58297553827902,-0.5860884780931372,7.924741000058823
1.662360333,1.2972417445431375,-2.4626130919964706,-0.6928225465558825,7.6805696237
1.672352333,1.2896027528313727,-2.4363642530239216,-0.6323097203754902,7.6358955022294115
1.682343333,1.4014896198705884,-2.3820895833180393,-0.7512051432303922,7.496411662445098
1.692335333,1.6104849005176474,-2.2778300708670587,-0.9925093658186276,7.212133681601961
1.702326333,1.8375589178901963,-2.2012858790631373,-1.1741945321127452,6.966094618837255
1.712318333,1.8915137907725492,-2.032027009102353,-1.1127056250617648,6.890817664798039
1.722309333,1.695254588517647,-1.8439168305337257,-0.8747723137088235,6.705612366876471
1.732301333,1.3206681269490197,-1.6676260646317647,-0.4305007078343137,6.304482206621568
1.742292333,0.8172500431254903,-1.5449378711317647,0.18608985383235294,5.713984193484315
1.752284333,0.49385879777254915,-1.5645799411382353,0.4156849497343137,5.54216934032745
1.762275333,0.2963507793019609,-1.6492077251460786,0.5007413661735294,5.510753189072549
1.772267333,0.16163559696862756,-1.720966452467647,0.5851616055460784,5.542121807131373
1.782258333,0.11670230714117658,-1.7114005223107842,0.7092958125990196,5.650601070935294
1.792250333,0.1463332100352942,-1.5646193009186276,0.8507657786970588,5.647403011680392
1.802241333,0.22004155383921578,-1.3399705252519607,0.9372902647362746,5.602210850268627
1.812233333,0.31970944848627464,-1.121833850997059,0.9608246198147058,5.584858354680393
1.822224333,0.43488985721176476,-0.9654281585068626,0.9732492078539215,5.628203519562744
1.832216333,0.5899844548980393,-0.876296940737647,1.0052742073245098,5.668781846052941
1.842207333,0.8029873024862746,-0.8166763566690196,1.081332644559804,5.649223146484315
1.852199333,0.9724522982705882,-0.7954269100219608,1.1627486275264707,5.666678871817647
1.862190333,1.0684724189058823,-0.783965083237647,1.2402220594205884,5.7445041107588235
1.872182333,1.1623733710039217,-0.792088012292549,1.2905510796166666,5.818063073268627
1.882173333,1.227927067464706,-0.8345815284690196,1.3045752709303922,5.866151001856863
1.892165333,1.237930859484314,-0.8851033290572549,1.301738138832353,5.912258835562746
1.902157333,1.2417428026823532,-0.9147404689984314,1.2857034225343136,5.941136818484314
1.912148333,1.2086242735411765,-0.8926362511356863,1.1759542774637257,5.9546081136215685
1.922140333,1.0720518034235293,-0.8391167206062744,0.8326357412892156,6.1209937334254905
1.932131333,0.9645394505019608,-0.7526833508023529,0.6752837572105882,6.111620077935294
1.942123333,0.9293431562862745,-0.5908501122337255,0.6118146819752941,6.024107487366668
1.952114333,0.9359520405803923,-0.43508321086117646,0.5725367130733333,6.010555000915687
1.962106333,0.9501332066980394,-0.3385251922533334,0.5655042782694117,6.0301927008960785
1.972097333,0.9343511245019608,-0.26342198370431374,0.6231461015062745,6.0428155327980395
1.982089333,0.8733102689333334,-0.15833233860627452,0.7246708253298039,5.991996546621569
1.992080333,0.7533757586000001,-0.06855300856705884,0.8081786267807843,5.882778269896078
2.002072333,0.5945085144235295,-0.006251212414117662,0.8550265185847059,5.737595558817648
2.012063333,0.44819312121745114,0.029265933429019595,0.8391008528592155,5.604921528111765
2.022055333,0.3547345625900001,-0.009769848963137267,0.707187524427843,5.684262730503922
2.032046333,0.37329901941352944,-0.08272280703176471,0.5919457056043137,5.711967831719607
2.042038333,0.45781588402137263,-0.07026814597294119,0.43044595609843134,5.571634967288236
2.052029333,0.5149626487468628,-0.04549376840431373,0.3287569369807843,5.460537423739216
2.062021333,0.45529252386450986,-0.10434848187490198,0.3775993728043137,5.460321818582353
2.072012333,0.33892783613901967,-0.1764533529062745,0.4372482642749019,5.4011759608960785
2.082004333,0.2008967780605883,-0.20798257157098038,0.4736407383023529,5.338451775700001
2.091995333,0.04811737966843145,-0.18779659585921565,0.49451965349647053,5.284671138798039
2.101987333,-0.09771255705705874,-0.10229292187882354,0.4974141671252941,5.234251640660784
2.111978333,-0.15922303575705876,0.08438338184666666,0.43878512464098035,5.135975339013726
2.121970333,-0.18376115713352936,0.27858630178784316,0.39501595811352935,5.044169018915686
2.131961333,-0.29112501944725483,0.38856982563098036,0.43135804720568616,5.00886605087647
2.141953333,-0.40881959332960777,0.47783771921921564,0.4760329072958824,4.976922894190197
2.151944333,-0.4896818392472548,0.5630037795486275,0.5074660968939215,4.9745080295235296
2.161936333,-0.5235419243060784,0.6406801069447059,0.5091666105213725,5.009473556641176
2.171927333,-0.5128285468707843,0.7077003424268627,0.48338798800372546,5.072997999117647
2.181919333,-0.4731776947060784,0.7588054658366667,0.45468125760764705,5.118407559215687
2.191910333,-0.4151703115609803,0.7990957740719608,0.450586455352745,5.134249264470589
2.201902333,-0.33432579647274496,0.8386175976798039,0.4803604803292157,5.133487890019607
2.211893333,-0.23136667039431363,0.8716677229935295,0.5328727419174509,5.131300766705883
2.221885333,-0.12148084092372542,0.8869189123856862,0.5739190263566666,5.141353637058824
2.231876333,0.045921394742941254,0.9329573202288236,0.6282015668860785,5.1457965569411765
2.241868333,0.23452074450764712,0.9939475973660784,0.697259327717451,5.154416188686275
2.251859333,0.4225018199978432,1.076236884924902,0.7649555729723528,5.180354841764705
2.261851333,0.5957142676252942,1.166513125109804,0.8181360910507842,5.223249102196078
2.27184225,0.7553638463115687,1.2368192435490195,0.8433205304037253,5.259171704431372
2.28183425,0.9120683200566667,1.2887220762235294,0.812585661717451,5.253862901313726
2.29182625,1.0327305335860786,1.302966478282353,0.762802123697843,5.228621992215687
2.30181725,1.0827985873782353,1.2696147627529413,0.7579094946782353,5.216028747039215
2.31180925,1.0711446279762746,1.2051821724313725,0.7825640157762744,5.200514752666667
2.32180025,1.0181602008684314,1.1144588381,0.7850554570507843,5.137449850058824
2.33179225,0.9460225023135295,1.0040900744647059,0.7168522782409803,5.030141252372548
2.34178325,0.8748951811221569,0.8934101816411765,0.5705923304174509,5.000232626862744
2.35177525,0.7970015665927451,0.7941678439156863,0.39588010637823523,4.996604649882353
2.36176625,0.6965911687103922,0.7018671715627451,0.25644291333901953,4.955355199078432
2.37175825,0.5783912692790197,0.6117187905039216,0.1523468592213725,4.887698115450981
2.38174925,0.4646959100045099,0.555022869054902,0.06721647263313718,4.837773786235294
2.39174125,0.3937386582437256,0.561012137662745,0.0071756113429410975,4.7919909454313725
2.40173225,0.3713463331574511,0.6234011719764705,-0.028618113545294196,4.72028796154902
2.41172425,0.3911529019731374,0.7084568116627451,-0.04330818521392165,4.646219791490196
2.42171525,0.4453290260358825,0.782973406917647,0.02745024974686267,4.556194491960784
2.43170725,0.552194370212353,0.8504917105254901,0.30911972535470583,4.285216915980392
2.44169825,0.5936001373103923,0.8626192256039215,0.4120267137664706,4.197930446784314
2.45169025,0.5288433360750981,0.7704788242705882,0.4283100886390196,4.200618868039216
2.46168125,0.397559523467255,0.6638283853294118,0.4324982743645098,4.16322523754902
2.47167325,0.2707638444280393,0.5922071936784314,0.44782305269784317,4.143378819764706
2.48166425,0.1881107224868628,0.5561688660117647,0.46829174703117643,4.135838196431372
2.49165625,0.1365035926882354,0.5340263775509804,0.46857278026647053,4.108888791960784
2.50164725,0.12147613666862754,0.5192373131,0.4461187412468627,4.078562149843138
2.51163925,0.14010146186470596,0.4985979374058824,0.4099310831429412,4.077574387098039
2.52163025,0.18001902158058833,0.4717639526607843,0.42464215892725493,4.116658661333333
2.53162225,0.25453015942372553,0.45925867305294116,0.5561518403037254,4.0607777207647064
2.54161325,0.3355643621884314,0.4256817824058824,0.6259272092821568,4.068557052803921
2.55160525,0.41797342595313736,0.35906949913137254,0.6212413911076471,4.144370798392157
2.56159625,0.505658804992353,0.27786785101372546,0.575905268244902,4.235456754333334
2.57158825,0.5843819273060785,0.20931566795490195,0.531493876807647,4.2960201646666665
2.58157925,0.648224390247255,0.15971674143725492,0.5149294085037254,4.325573351529411
2.59157125,0.7019968643943139,0.10691679684705883,0.5246626378096079,4.343989902882353
2.60156225,0.7690775841629411,0.044624035215686274,0.5372006044958824,4.347866591000001
2.61155425,0.8528571263394118,-0.04482616537254902,0.5363829831719411,4.357254679431373
2.62154525,0.9351495610649021,-0.17308860127450978,0.5188659260503725,4.391194935960784
2.63153725,1.0023436623590196,-0.3300740050588235,0.48778690286801957,4.443087892156863
2.64152825,1.0641706588688238,-0.5012040184117647,0.4533587407405686,4.49808789190196
2.65152025,1.1233940736923531,-0.679685621372549,0.4263950567248823,4.550259398372549
2.66151125,1.1669091328256862,-0.8596351620784313,0.4156961912739019,4.597211310686274
2.67150325,1.1903974009688236,-1.0331656752941176,0.43467172742488236,4.6282462095294115
2.68149425,1.1982548406374511,-1.1915925323921568,0.47530197674056857,4.637637892960785
2.69148625,1.1902858151707845,-1.3308336545490196,0.5117720410268431,4.634598337196079
2.70147725,1.1768868072850982,-1.4550471114313726,0.5220622978876274,4.627487613647059
2.71146925,1.1633535972027451,-1.5722872935882355,0.5095697273778235,4.607451939078431
2.72146125,1.1408401029125492,-1.6919215207450982,0.48634571325821563,4.566070863803922
2.73145225,1.1057653247262746,-1.8154349054117649,0.4533845688091961,4.504599935901961
2.74144425,1.0630185409988238,-1.9422136619215686,0.3985883962444902,4.427874330235294
2.75143525,1.027765050096863,-2.075717197980392,0.315182385091549,4.343726576
2.76142725,1.0002927729596078,-2.21664846354902,0.205762174564098,4.259735120313725
2.77141825,0.9667355908615687,-2.3629489635490195,0.07945957056409801,4.175933511862745
2.78141025,0.9212175278615689,-2.5141314300000004,-0.04743067286727454,4.1037830058431375
2.79140125,0.8604224703262745,-2.6637792889803924,-0.15660527455354906,4.055626167843137
2.80139325,0.7998577801890198,-2.8003300154901964,-0.2434060673221765,4.037038154039216
2.81138425,0.7614030870601962,-2.9263633781176472,-0.3373512862849216,4.040834116156863
2.82137625,0.7406602321307844,-3.0514738781490194,-0.43949641402609807,4.057295818156863
2.83136725,0.7238449369052943,-3.1807673501509806,-0.5063547876927648,4.128588943745098
2.84135925,0.7051487987739216,-3.3195182348490198,-0.5045966990574706,4.261651223137255
2.85135025,0.6764081588280392,-3.4795085342215684,-0.42938650651825494,4.351601523490197
2.86134225,0.6446564679456863,-3.669010189633333,-0.33060302617903925,4.447775294176471
2.87133325,0.6274925066907844,-3.8801207463392156,-0.2685203859751177,4.604019619882353
2.88132525,0.6182868997300001,-4.104968281554902,-0.2496177135947255,4.809181322058824
2.89131625,0.6091224497300001,-4.340008499554902,-0.25263629854766667,5.035377417254902
2.90130825,0.5821472948633334,-4.582417619535295,-0.255735735588,5.278160041980392
2.91129925,0.5277243294398041,-4.818094324260785,-0.23940824576250982,5.515401488137256
2.92129125,0.45587906618490204,-5.037255694456863,-0.19290902286054906,5.726189304000001
2.93128225,0.3855819736554903,-5.232417936103921,-0.11990386405662748,5.902362123176471
2.94127425,0.3479705242652942,-5.394783523574509,-0.018028937860549037,6.041165347000001
2.95126525,0.3793460077358824,-5.51852492665294,0.09882601023749017,6.161355076058824
2.96125725,0.47470630448098045,-5.608391712692157,0.18958821136494114,6.275352252960785
2.97124825,0.6155448572652942,-5.659927569515686,0.23067964546298036,6.340311500960784
2.98124025,0.7676055124613725,-5.672783452747059,0.2253100842669019,6.368533772058824
2.99123125,0.8993733655986276,-5.645710030256863,0.18126102528650978,6.400484303882353
3.00122325,1.0214816643580393,-5.536805225992157,-0.026379082850745132,6.574140766333333
3.01121425,1.1611811480247058,-5.363259005541177,-0.30308999334094117,6.8922448932352935
3.02120625,1.2723845558286275,-5.172207150098039,-0.4339424304919216,7.112422866156862
3.03119725,1.3460212081815686,-4.948819217568627,-0.5189069969232941,7.270696055039216
3.04118925,1.3458203448482353,-4.7324573452156855,-0.5575004374566275,7.331865145823529
3.05118025,1.2254340138482354,-4.516205090960784,-0.5990230120036862,7.368930809411765
3.06117225,0.9725017114756863,-4.30543832754902,-0.6108927279311372,7.456973915803921
3.07116325,0.6758475132599999,-4.118981191254902,-0.515777332088,7.570917285607843
3.08115525,0.39456964637764713,-3.940753712882353,-0.359559770905647,7.743170813254901
3.09114625,0.1302430354168628,-3.7561422559215685,-0.21405546103309805,7.971334485705881
3.10113825,-0.11495443823999996,-3.556689086647059,-0.09325187099388234,8.218806990431373
3.11113025,-0.36098882616549016,-3.345958702098039,0.025481850553176474,8.473674973137255
3.12112125,-0.6120384914203921,-3.104170006117647,0.13994425558711765,8.71143804454902
3.13111325,-0.8442976647537255,-2.8062484870392157,0.21831908448711768,8.911391594607842
3.14110425,-1.0445849192831371,-2.4732766477058825,0.28596193378515683,9.082348910588236
3.15109625,-1.221992107812549,-2.139481531921569,0.38854955531849017,9.236776014490196
3.16108725,-1.3708510742243138,-1.8018705002549023,0.4972831565577059,9.383300308568627
3.17107925,-1.48599400344,-1.4429934089019607,0.5938089122929999,9.543396266843137
3.18107025,-1.575407919759608,-1.0719564364313725,0.6879973467498628,9.729794456254902
3.19106225,-1.6525667427831374,-0.7078704733921569,0.788118148375353,9.935621843568626
3.20105325,-1.7109938370498041,-0.3614579375098039,0.8989883680694707,10.156739901078431
3.21104525,-1.7528564458190194,-0.0348069269607843,1.024222955200843,10.39090027482353
3.22103625,-1.7838625751386274,0.27989422074509807,1.1672805435380982,10.639730651156862
3.23102825,-1.7863587973601962,0.6022022176470588,1.3263767893047647,10.915363508588237
3.24101925,-1.7403495711150982,0.9564063748039217,1.5056861860086863,11.240329806686272
3.25101125,-1.6369408084660781,1.3729202848039215,1.7124978010047647,11.643911042156864
3.26100225,-1.4971879431523527,1.818054561352941,1.9152884893341764,12.072317585686273
3.270994333,-1.3568806557405884,2.2118368013725487,2.089467702410647,12.429125841235294
3.280985333,-1.2165685529954902,2.546067133372549,2.237337061959667,12.710381822607843
3.290977333,-1.0681389327209803,2.8510839850392156,2.3572628014694708,12.940521848411763
3.300968333,-0.9115074717935294,3.1463110498431375,2.448148550822412,13.137305396235293
3.310960333,-0.74719493497,3.429254627960784,2.5139364913361373,13.311475840882354
3.320951333,-0.5725658782529411,3.7064230143529415,2.5575256295341764,13.468275989254902
3.330943333,-0.36093204084313724,3.9843299614117647,2.527384568530255,13.628368912254901
3.340934333,-0.10667295803921562,4.2739417959803925,2.403498673236137,13.816715356176468
3.350926333,0.14619490037254906,4.591437179039215,2.2696231711361374,13.981596273980392
3.360917333,0.3797786113529412,4.93761005927451,2.1252701178322155,14.10490568562745
3.370909333,0.5831221481764706,5.311247116568627,2.0272000207282943,14.150900079352942
3.380900333,0.7630056010196078,5.717735883568627,2.022770929714569,14.136080637392157
3.390892333,0.9349391622549019,6.156087860019608,2.074948658902804,14.098413449156862
3.400883333,1.1012405793137257,6.6252801039803915,2.1569122221498627,14.044930782294118
3.410875333,1.2551722747254903,7.11260012672549,2.2447155945784316,13.985297698568626
3.420866333,1.394000371352941,7.5996985056470585,2.3213499596215685,13.929506530921566
3.430858333,1.5158083467843138,8.080410532705882,2.3734459424647056,13.875742731509803
3.440849333,1.5445478302000002,8.533904986117646,2.3390710301235296,13.781667664450978
3.450841333,1.3573637875313727,8.921126317764706,2.1261071983588233,13.819365687392155
3.460832333,1.3143763134803919,9.336216075215686,2.0689958551705883,13.808633487784315
3.470824333,1.1573228182843138,9.635434392117647,1.8445054186607843,13.86243987954902
3.480816333,0.7191411620686275,9.638235013490196,1.1817564981117648,14.417873813470587
3.490807333,0.3974869755980392,9.440981039352941,0.9478697981509804,14.66265838282353
3.500799333,0.010102575558823546,8.966274114235294,0.9959060218764705,15.078601015568628
3.510790333,-0.4777503922647059,8.22729068645098,1.3961309878568628,15.600256392039213
3.520782333,-1.1437387045588234,7.0044034430196085,1.8673410600137255,16.421389133019606
3.530773333,-1.7498854883039214,5.505894275627452,2.1651819907392156,17.56804680752941
3.540765333,-1.907670235147059,4.2911889723137255,2.303965585464706,18.389660890666665
3.550756333,-1.7466337770686273,3.6373818546666667,2.2760564410725492,18.79635509198039
3.560748333,-1.5257131631666667,3.355016818411765,2.201428106680392,18.898601079411765
3.570739333,-1.2714498682843138,3.253604040094118,2.106116496621569,18.81801030245098
3.580731333,-1.0118073756960784,3.2599856568784316,1.9322603164254901,18.700541947803924
3.590722333,-0.7426515922843137,3.2997560903294114,1.6997030440137255,18.57457580433333
3.600714333,-0.4337440320882353,3.3226530415843136,1.475091059935294,18.44433056319608
3.610705333,-0.08629225112745094,3.312821051643137,1.2844276430529413,18.32022780052941
3.620697333,0.29812427430392163,3.2583551436039215,1.1381282451411765,18.199284982392157
3.630688333,0.700830810127451,3.128528130368627,1.056363048690196,18.085934062784315
3.640680333,1.0733258488529414,2.893464661074509,1.0634516167686274,17.98783901082353
3.650671333,1.3831857198725492,2.54686839652549,1.1256091357294118,17.925364684156865
3.660663333,1.632982108892157,2.1188202918196075,1.1886161003568627,17.928325518666668
3.670654333,1.827961481754902,1.6463207135843134,1.2466973877098038,17.966230048862744
3.680646333,1.9644676175196079,1.143722352015686,1.2822709821215685,17.979292315529413
3.690637333,2.043499022819608,0.6479987567215685,1.2531783154352942,17.924095559647057
3.700629333,2.067042366584314,0.19020767744705872,1.130475939572549,17.815996728705883
3.710620333,2.063272299760784,-0.21941876288627468,0.9382722399843136,17.692582433019606
3.720612333,2.077692725937255,-0.5992326122980394,0.727978596572549,17.546086817039214
3.730603333,2.1017048787972548,-0.9830245060235296,0.5094126678862745,17.390892952431372
3.740595333,2.087225259597255,-1.405940796101961,0.28025240992549016,17.231899987725487
3.750586333,2.0064267254011767,-1.891708245592157,0.05649423400392154,17.043392470921567
3.760578333,1.8560919389501962,-2.460643062337255,-0.1613719663882353,16.78931697709804
3.770569333,1.6603513503227452,-3.063965560768627,-0.3490716937156863,16.50886086337255
3.780561333,1.4593862458521567,-3.6127703401803926,-0.48506686595098036,16.292082518862745
3.790552333,1.2651088570305884,-4.093808664690196,-0.5789657887156863,16.145824760235293
3.800544333,1.0747741776345099,-4.527203050768628,-0.6393975535784314,16.038786582784315
3.810536333,0.8910848108305882,-4.930112645415686,-0.6705664232450981,15.94830153409804
3.820527333,0.7149432105619609,-5.3107762100039215,-0.6864374404411765,15.872611869392156
3.830519333,0.5371602323639216,-5.685479604494118,-0.6924391630294118,15.813538599843138
3.840510333,0.33197164676980395,-6.071991932513726,-0.6462029831294119,15.76092241454902
3.850502333,0.08989584973058826,-6.492059619670588,-0.5324354953058824,15.70196301337255
3.860493333,-0.14925191412823527,-6.958045697670588,-0.4121041424627451,15.684625092980392
3.870485333,-0.3597778209654902,-7.461968613984314,-0.2623500447235294,15.716443145725489
3.880476333,-0.5287567210741176,-8.0018035352,-0.14815142650431376,15.83288448709804
3.890468333,-0.6735399890015685,-8.55638828729804,-0.13915572599058826,15.992178752196077
3.900459333,-0.8132098496309804,-9.080583580611764,-0.2049039226376471,16.112894553960782
3.910451333,-0.9252819301035293,-9.507359663592158,-0.341085833147451,16.128556213568626
3.920442333,-1.0011373027113726,-9.814758567670587,-0.5587709074611765,16.066821557686275
3.930434333,-1.0385671989270588,-10.011356736452548,-0.8678147136376472,16.05085118847059
3.940425333,-1.00664573528,-10.162779328609412,-1.166654165402353,16.069432272588234
3.950417333,-0.9104553001662745,-10.325795986307453,-1.2326783362964706,16.01162222239216
3.960408333,-0.6578822232054901,-10.45396656360157,-1.025949588355294,15.79126161237255
3.970400333,-0.5949017774290196,-10.64586417860745,-0.968461873637647,15.670779893235293
3.980391333,-0.45709935695843135,-10.773199383685883,-0.7362281242258824,15.539548759490195
3.990383333,-0.08500187151333331,-10.653505801548627,-0.027405093402352997,14.973822850313727
4.000374333,0.11230953713372553,-10.369171881685883,0.28776925461725483,14.772185013647059
4.010366333,0.3464032972317648,-9.833917646136861,0.35412231706823527,14.424425548117648
4.020357333,0.6477815469572549,-9.099506408489804,0.24413709636235287,13.866594926941177
4.030349333,1.0689098731141178,-7.90860977490157,0.1455274273819607,12.903095626745099
4.040340333,1.4180264595258827,-6.409748077744706,0.09076300177411756,11.726687974196079
4.050332333,1.3352914478984315,-5.170868275391765,0.15423707295058814,10.948361665764706
4.060323333,0.9946833397611764,-4.435173894999608,0.34804507655843125,10.692077846156863
4.070315333,0.6903738292709803,-4.024278941372157,0.615609009970196,10.775290770862746
4.080306333,0.4600593768003923,-3.729034483976078,0.8967088348721568,11.00949656645098
4.090298333,0.26072961815333345,-3.471796068427059,1.1500119825584314,11.279935428941176
4.100289333,0.05775011062392169,-3.23846079532902,1.3873944461270589,11.542169755745098
4.110281333,-0.18355164414078418,-3.026453619721176,1.613385685185882,11.78801486609804
4.120273333,-0.4697609265917646,-2.8501389604074507,1.8446640224996078,12.003183033666668
4.130264333,-0.7662164340819606,-2.625041852289804,2.0671912549407843,12.231093885921567
4.140256333,-1.0462080740427449,-2.1147140678780394,2.3306152250192156,12.679972156705881
4.150247333,-1.3129972915133332,-1.4893343930937255,2.6480062180388235,13.208092557490195
4.160239333,-1.5279899809839215,-0.88711019678,2.949305444352549,13.627369850823529
4.170230333,-1.6784888448858823,-0.2895941899172549,3.146141044470196,13.872516608862744
4.180222333,-1.7826494361996077,0.2907181161611765,3.2525453730388234,13.988421441411765
4.190213333,-1.857306688532941,0.8496617381219608,3.3261167600976473,14.061566412980392
4.200205333,-1.904682162578039,1.359511289102353,3.4055991548231366,14.143086764156864
4.210196333,-1.9122727255780392,1.807134564847451,3.5248177079996084,14.237714598627452
4.220188333,-1.8985332821858825,2.192567015376863,3.6680630320780394,14.322420957450982
4.230179333,-1.9080122608133332,2.5349649904749025,3.7858250151760786,14.407680814607845
4.240171333,-1.929202160457647,2.8731524085141174,3.8417335058623525,14.485468829607845
4.250162333,-1.918694119175294,3.2328531432984313,3.7963924415290196,14.570380571960786
4.260154333,-1.8851114844949017,3.6081850331807845,3.7445659666074507,14.621358110137257
4.270145333,-1.837516801494902,3.9885726665141177,3.673938480607451,14.642850143960784
4.28013725,-1.7838300750439213,4.358858225867059,3.562473261209411,14.648943004156862
4.29012825,-1.7473445414321567,4.714931244808235,3.4533323440721566,14.621264893000003
4.30012025,-1.7375305234478429,5.0643789556905885,3.3810191860525487,14.564153646960785
4.31011125,-1.7374696894733332,5.415045226337647,3.353570687609411,14.513017629352941
4.32010325,-1.7413081106694115,5.764018601867059,3.3676551625898035,14.486446091235296
4.33009425,-1.7509140010988236,6.107279683376862,3.405222267727059,14.470108672764706
4.34008625,-1.7664598772713722,6.453637874514118,3.4633835587466666,14.449287203803921
4.35007725,-1.7809616485321567,6.820809814455295,3.548692559140784,14.40988663890196
4.36006925,-1.790820082785098,7.226283550729804,3.6623696644741175,14.32960668862745
4.37006025,-1.8056894748086274,7.670269617416078,3.7897070937878428,14.203003650411766
4.38005225,-1.837798324520392,8.144005044690589,3.9086507848329406,14.036376683294117
4.39004325,-1.8945819570784312,8.645732125161176,4.023463595731372,13.837640104431372
4.40003525,-1.9696305687,9.138538097357255,4.126430532439215,13.62194979319608
4.41002625,-2.069459324835294,9.510799327690588,4.023343888321569,13.448958089627451
4.42001825,-2.2093022286568624,9.745427454529803,3.9064334489882353,13.423249558254902
4.43000925,-2.5121910091470587,9.815610242588628,3.8404368201843138,13.582876394333335
4.44000125,-2.989847957617647,9.631230759586273,3.807365564694117,13.878746817470589
4.44999325,-3.4862678301274506,9.367282538017646,3.971570021243137,14.065368034921569
4.45998425,-4.0188882275392155,8.860306056617649,3.736577280262745,14.661881672764705
4.46997625,-4.506443325558823,8.393742617558823,3.9321535248313726,15.25531975827451
4.47996725,-4.904665476794118,7.796251719231372,4.128845335145098,15.888078088980391
4.48995925,-5.052297112637255,7.03827543442745,4.155494926243137,16.53421779645098
4.49995025,-4.849222911807843,6.240900106054902,4.047636776443137,17.194919150137256
4.50994225,-4.43721627065098,5.53997791325098,3.8951143402470585,17.779293595039213
4.51993325,-4.072150956435294,4.980541107309804,3.740338639378431,18.158343141941177
4.52992525,-3.875905013592157,4.542490285545098,3.5664952685745095,18.304444549
4.53991625,-3.794972830395098,4.209225695643138,3.4250841415156863,18.27563550229412
4.54990825,-3.722224490493137,4.005844114662746,3.3179219622784313,18.085979301686272
4.55989925,-3.6093137358441174,3.9612537296823533,3.2241094435725492,17.977256435058823
4.56989125,-3.438106413118627,3.9816695698784312,3.0704125310529413,17.923880393686275
4.57988225,-3.1869355041970584,3.9064737574470594,2.8372143866019606,17.803321558588234
4.58987425,-2.8725117208441175,3.735871483976471,2.598166876778431,17.636522537411764
4.59986525,-2.512164914687255,3.5042014519960785,2.403842638562745,17.45458782152941
4.60985725,-2.1340190235107843,3.224660185250981,2.279068376347059,17.267147363294118
4.61984825,-1.760670039138235,2.8964061662313725,2.205539163719608,17.07329039937255
4.62984025,-1.4320503856284312,2.543992369192157,2.098268535837255,16.85428761390196
4.63983125,-1.2425287694519607,2.1465656398196082,1.9458449863666665,16.537856278960785
4.64982325,-1.171257745765686,1.5410348086431374,1.7116971565823527,15.97620957682353
4.65981425,-1.1042648718147057,0.9440791943882353,1.3644499880725491,15.301051874392156
4.66980625,-0.9849233551284312,0.509733787564706,0.9576795285156862,14.734400600254903
4.67979725,-0.80363422305,0.15253030699607847,0.612524344696392,14.357435318921569
4.68978925,-0.62351160477549,-0.204899552572549,0.371318191833647,14.096276829568628
4.69978025,-0.45509724473627433,-0.5878008121411764,0.20966198063756855,13.900452026058824
4.70977225,-0.30312798954019593,-0.9864567522,0.11652441408854897,13.752534792980391
4.71976325,-0.14947599742254888,-1.3818907161019607,0.06170769030423525,13.64362128880392
4.72975525,0.004767847597058976,-1.7519119011019606,0.015269676855215639,13.551594511843136
4.73974625,0.14146845773431388,-2.0802749649843135,-0.022971692501647108,13.459699711509803
4.74973825,0.25071986430294135,-2.377500229709804,-0.019967499148705926,13.356773046764706
4.75972925,0.3091249326343139,-2.661151664964706,0.07208599363560779,13.206498487431372
4.76972125,0.3410864955617649,-2.936358975454902,0.15550007624345094,13.062767098666665
4.77971225,0.3656963900911766,-3.2091002972980394,0.23706194722972546,12.942618417431373
4.78970425,0.3672777179735296,-3.4783251609843133,0.327806675506196,12.83983332107843
4.79969625,0.36474712042843155,-3.7376850036901965,0.38620329978070583,12.773308117862745
4.80968725,0.3847476910382355,-3.9871898688862744,0.3874070035846274,12.734782419764706
4.81967925,0.4113823509382354,-4.2379965192,0.32907162032188225,12.694205267117646
4.82967025,0.43315067851078454,-4.491352085454902,0.22964905077286268,12.633418351039214
4.83966225,0.45912873980490215,-4.736681912572549,0.11825509253756859,12.559034827156864
4.84965325,0.492131005369608,-4.981107553768627,0.004779714694431337,12.483372252745099
4.85964525,0.5225781423127452,-5.229957014866667,-0.109302357638902,12.40856732164706
4.86963625,0.5551866566617649,-5.484931182160784,-0.22159101726047062,12.340187093470588
4.87962825,0.5992472380931374,-5.744617781043138,-0.3376336237251765,12.283939238058824
4.88961925,0.6628753117401963,-6.007245254219608,-0.4664475552349804,12.24392291792157
4.89961125,0.7529017898186275,-6.278279212023529,-0.6071197088820393,12.217825873176471
4.90960225,0.8721358151911767,-6.554297324984313,-0.7313167649016471,12.223715705882352
4.91959425,1.0290639363284315,-6.767669149082353,-0.6323201449408627,12.244537489980392
4.92958525,1.2072157849754903,-6.965505333960785,-0.4806753099016471,12.232335317431374
4.93957725,1.5210467524852944,-7.139134493235295,-0.3057184314702745,12.119702154882352
4.94956825,1.9802605795833335,-7.19286841017647,-0.07505189346439214,11.844206389588235
4.95956025,2.4074800077205882,-7.252521153901961,-0.03773595490949018,11.688302883117647
4.96955125,2.924434837308824,-7.0880562211568625,0.2752579950944314,11.303875149588235
4.97954325,3.4913050022500003,-7.005895618215686,0.10676958181992158,11.046004780372547
4.98953425,4.033800292053922,-6.842805767039216,-0.05498277035654903,10.799986814882354
4.99952625,4.340117369563726,-6.484096078019608,-0.055496201768313734,10.49428633037255
5.00951725,4.27799014152451,-5.968362760568628,0.024567030717960778,10.00845728135294
5.01950925,4.023283879916667,-5.467735197235295,0.10395471775717646,9.46455553017647
5.02950025,3.807528123132353,-5.03964375445098,0.1499211933905098,9.015829454254902
5.03949225,3.7206493560147056,-4.627713648843137,0.11821086870423532,8.799398721784314
5.04948325,3.7792383307392163,-4.274690033156863,-0.06205768917811765,8.889377176921569
5.05947525,3.94618626642549,-4.11142635927451,-0.16335945639184313,9.056450543215687
5.06946625,4.098010504933334,-4.11791409727451,-0.23127695570556864,9.104653424745099
5.07945825,4.213742804835294,-4.161721689235294,-0.3415327591467451,9.136055312
5.08945025,4.23054571914902,-4.124581757588235,-0.4377364536957647,9.21956460317647
5.09944125,4.094941635366667,-4.0812052545294115,-0.4494734320879216,9.202669195568628
5.10943325,3.8269128081901966,-4.077611188901961,-0.37320257181341177,9.116129585294118
5.11942425,3.4931744561705886,-4.075527034862746,-0.2929861565977255,9.060876879784313
5.12941625,3.12912442497451,-4.0271786443333335,-0.24139418369576474,9.05411894272549
5.13940725,2.75359625197451,-3.913105039,-0.216786904656549,9.12429852427451
5.14939925,2.435241282366667,-3.7655503227058817,-0.21154632616635297,9.312312495882354
5.15939025,2.1977390539941175,-3.6193481591176466,-0.19925906746047062,9.523534157039215
5.16938225,1.9896057045137256,-3.4911089974313723,-0.14541041326439216,9.756258243196077
5.17937325,1.744042504709804,-3.363140917254902,-0.06556857527615688,9.957923836941175
5.18936525,1.455402947454902,-3.140554007470588,-0.09821975996666668,10.109061270235296
5.19935625,1.1814516876509806,-2.853259825745098,-0.09898856565294119,10.23403449409804
5.20934825,0.9226134280431374,-2.5561189444117645,-0.03359297904509805,10.334029514470586
5.21933925,0.704031643082353,-2.2356867341568627,0.02990273540588233,10.41915348127451
5.22933125,0.492697757082353,-1.8948379500588235,0.13376488942549017,10.517677772313725
5.23932225,0.2788714667490197,-1.5380638499607842,0.3196455074627451,10.674364471431373
5.24931425,0.08145132849411774,-1.1329397084313724,0.5855324422705882,10.942005650980393
5.25930525,-0.09795647913333326,-0.570298777235294,0.9379403661137254,11.416539488862746
5.26929725,-0.19175671007450973,0.0869945076274511,1.3144091524862744,12.00737625407843
5.279288208,-0.20735008770196073,0.7102840436078433,1.6685642760156865,12.571182290294116
5.289280208,-0.20262447693725485,1.2612895888627453,2.007340164754902,13.054150414666667
5.299271208,-0.20077948550588226,1.7258894296666667,2.340365672262745,13.43752580337255
5.309263208,-0.22479567983137247,2.112443146764706,2.650312586517647,13.724514309901961
5.319254208,-0.2865862401529411,2.461239110882353,2.9275868160470586,13.958278902862746
5.329246208,-0.3664935268274509,2.788778210352941,3.1750973450470585,14.156574400764706
5.339237208,-0.44518811243921563,3.102586316313725,3.3858784513215685,14.331553885607843
5.349229208,-0.5244203437999999,3.401269280431373,3.5549451198509803,14.488381807176472
5.359220208,-0.6049430728568628,3.6955608021764705,3.6813523546156857,14.622961751862746
5.369212208,-0.6853258757490196,3.988951050176471,3.7690726965764703,14.737826606686275
5.379204208,-0.7805027246882352,4.293771229039216,3.758738255982353,14.846257795137255
5.389195208,-0.9256668183156862,4.64008021182353,3.505252081760784,15.102969214058824
5.399187208,-1.0444442563941176,4.986787550470588,3.405447723407843,15.234089637196078
5.409178208,-1.1329218070411764,5.331317500745098,3.4159479469,15.288741129039215
5.419170208,-1.213230699982353,5.679710350941176,3.472474585723529,15.30616281243137
5.429161208,-1.291015381452941,6.035709821058823,3.5539823212529416,15.294184511078429
5.439153208,-1.367072654962745,6.401963369843137,3.6342146185470585,15.255898613647059
5.449144208,-1.4431725099823531,6.774613669411766,3.701824775037255,15.196857771529412
5.459136208,-1.5193747113156861,7.160818170235294,3.7586262244039212,15.110008351509803
5.469127208,-1.6062841562372547,7.5761218211764705,3.805916392143137,14.975338816980393
5.479119208,-1.7324746713941177,8.028482442098039,3.8340359560411765,14.779305029156864
5.489110208,-1.917866510943137,8.521370286803922,3.824828402864706,14.506022977607842
5.499102208,-2.168776777433333,9.039603632921569,3.7898462313745096,14.158858785666666
5.509093208,-2.437497387609804,9.496484644549021,3.7499888521392157,13.843112355862745
5.519085208,-2.667443041296078,9.78938936735294,3.6642860890764704,13.63025139562745
5.529076208,-2.852873916727451,9.905940816294118,3.433935234821569,13.604683906215687
5.539068208,-3.0296146545313722,9.917199549784314,3.3230075576450973,13.601638258647059
5.549059208,-3.2634031098058824,9.63591826627451,3.2724833723117643,13.764314681705883
5.559051208,-3.5019645096294116,8.974520694745097,3.149139545449019,14.107094777784313
5.569042208,-3.751459377237255,8.377157254294117,3.224715358084314,14.37306017582353
5.579034208,-4.165844579707843,7.608937920215688,3.5033066816333327,14.889553959941177
5.589025208,-4.570469025178431,6.5431065798235295,3.814738398868627,15.538785275431371
5.599017208,-4.706624342315687,5.455337449235294,4.043829350143137,16.12654094445098
5.609008208,-4.533641978337255,4.673806917294118,4.063164601829412,16.58767073127451
5.619000208,-4.255108295768627,4.1838115297254905,3.9823521575745096,16.889388766058826
5.628991208,-3.9682106240431367,3.8721904430196084,3.8216255446921563,17.007280865882354
5.638983208,-3.6095525281411764,3.706931034176471,3.572732183594118,17.039201044705884
5.648975208,-3.1142090706901957,3.6894747107058823,3.2979171524372544,17.121625643921572
5.658966208,-2.5538968791215684,3.6799113831372554,3.1105360872607846,17.15746532137255
5.668958208,-2.093109319709804,3.5550714142941175,3.0607856949274512,17.066642486862744
5.678949208,-1.8056163899450977,3.3187148045882355,3.0561978720647063,16.935700370490196
5.688941208,-1.6273528766764704,3.0447241964509804,3.085023470064706,16.811188572313725
5.698932208,-1.5106697048725488,2.7299303188235298,3.2389921175941176,16.652234791058824
5.708924208,-1.405964130119608,2.471407269991765,3.319383513594117,16.467786125156863
5.718915208,-1.2508011085313726,2.346998928913333,3.2610321823392154,16.309680838235295
5.728907208,-1.0440527580999999,2.3054586693250982,3.1189241761039215,16.248749033
5.738898208,-0.7754773939431372,2.2144959430309803,2.921243704907843,16.18679050045098
5.748890208,-0.4463087556490195,2.022347333344706,2.6751346503392157,16.100106066137254
5.758881208,-0.09433789102156855,1.6630086330701959,2.379899794947059,15.95445433182353
5.768873208,0.20291885127254908,1.0177635360309805,2.036267810886274,15.621585048098039
5.778864208,0.3550625655862746,0.2255404760309804,1.7136656531607841,15.172603556921569
5.788856208,0.4351124383313726,-0.5092129841258822,1.4221298783176468,14.74075878045098
5.798847208,0.5076580002529413,-1.1000274856552943,1.1166597012784312,14.338140574607843
5.808839208,0.5672957705666668,-1.5301854950278433,0.8098754198980392,13.963189818215685
5.818830208,0.6417738257862746,-1.864851972047451,0.5489760282509804,13.652362264098038
5.828822208,0.7447978846294119,-2.176165208655294,0.3414161101529411,13.399890657549019
5.838813208,0.8588076750411764,-2.489073749067059,0.17189303201568626,13.192529098176472
5.848805208,0.964764135472549,-2.8210632217729414,0.023268237998039187,13.030561111333334
5.858796208,1.0533739994529412,-3.171211784400392,-0.12100949226274511,12.917871422686273
5.868788208,1.1268552649215686,-3.5303455684592158,-0.25750459569411766,12.847264682941177
5.878779208,1.1995856561784315,-3.8786301763807844,-0.3807072180470588,12.795016229176472
5.888771208,1.2779074015341176,-4.2060644159101965,-0.4154844331647059,12.721732961058825
5.898762208,1.401383988874118,-4.529916410282745,-0.18748716338039217,12.448771178352942
5.908754208,1.4947360077925491,-4.809928847949411,-0.09042851992941178,12.251070973000001
5.918746208,1.5552232810709805,-5.044529710812157,-0.0834890902529412,12.082131349784314
5.928737208,1.6051193665337258,-5.244354946459215,-0.10030368753529413,11.913935945901962
5.938729208,1.6429281909827451,-5.425135307727844,-0.1364396723137255,11.752247576003922
5.948720208,1.6723541718954902,-5.603711314551372,-0.1660513869019608,11.606483172690195
5.958712208,1.6930377513994117,-5.7934105599435295,-0.1937475307039216,11.483336554729412
5.968703208,1.7070517874837254,-5.999544711982744,-0.2176292734647059,11.391040690003923
5.978695208,1.71595959344451,-6.225493564453333,-0.24925580956313725,11.335572915454902
5.988686208,1.726804756817059,-6.474175921316079,-0.3080985878376471,11.32259437947451
5.998678208,1.7438658171111767,-6.742538343629803,-0.4006193333278431,11.3490359224549
6.008669208,1.7796747332915686,-7.023110199355294,-0.5218164753670589,11.410845641101961
6.018661208,1.848259213607255,-7.315855625492548,-0.6647314776415686,11.507243807180393
6.028652208,1.9423557479013727,-7.604343888884706,-0.7508089669709805,11.668638329180393
6.038644208,2.03202171647,-7.848491684100392,-0.6628116962847059,11.77066006290588
6.048635208,2.160984012489608,-8.111728242335687,-0.6375664430298039,11.957834180709805
6.058627208,2.4288272077837254,-8.247427499531764,-0.5430525795003922,11.99880685874902
6.068618208,2.7325056317249015,-8.129025097374903,-0.21822383646058827,11.7744416089451
6.078610208,3.0447260236072546,-8.084788640904314,-0.14912942735078435,11.762460548356863
6.088601208,3.5845109339994123,-7.892128388355293,-0.2825368397821569,11.555164275807844
6.098593208,4.098781415764118,-7.356129263453333,-0.35094719919392153,11.064265624827453
6.108584208,4.332882937842549,-6.677004424433725,-0.3122043967037255,10.485254035807843
6.118576208,4.308583537646471,-6.145209298492549,-0.16833253197823533,10.029917039494118
6.128567208,4.212451540313137,-5.730593681316079,-0.10312012086450985,9.70419888847451
6.138559208,4.117811649195491,-5.362107791806274,-0.23511553388411768,9.6536419922
6.148550208,4.0727754884700005,-5.14430165719843,-0.3115854431194118,9.679757898866667
6.158542208,3.9793658974111765,-5.092882572708236,-0.1772249116096079,9.56383243729804
6.168534208,3.866219327940588,-5.010937674688628,-0.09930315019784319,9.47908157474902
6.178525208,3.8250441067249015,-4.789328602767059,-0.272833353844902,9.571953775533334
6.188517208,3.759546294152353,-4.550063175257255,-0.4983195023743137,9.61059400510196
6.198508208,3.6150743102170586,-4.3928184646494115,-0.6314752322939217,9.629537853160784
6.208500208,3.4263657321778433,-4.29814609284549,-0.7065514863527451,9.717961068533333
6.218491208,3.1789487815033337,-4.254836924484313,-0.761370027372353,9.884477402866667
6.228483208,2.8609984047778427,-4.285279902445098,-0.7517832593527453,10.067960192729412
6.238474208,2.476424073268039,-4.3761911846411765,-0.6365985626860785,10.177590411690195
6.248466208,2.034726664130784,-4.400555259641177,-0.46308819943117646,10.280684643258823
6.258457208,1.5410346439347058,-4.315012776209804,-0.28743362207823536,10.367019119337256
6.268449208,1.0367229564837257,-4.100230695405883,-0.13566627927431377,10.420495418356863
6.278439833,0.5981079241307844,-3.745506640601961,-0.050763309252745144,10.471912952670587
6.288431833,0.2562193790915687,-3.341170210798039,-0.004669782782156902,10.542407840709803
6.298422833,-0.058177977143725405,-2.9697396863666667,0.03902413810019604,10.61849081992549
6.308414833,-0.3832740526535293,-2.656747989327451,0.12458853711980387,10.745274322631374
6.318405833,-0.6861219770260784,-2.390161618582353,0.2759115202060784,10.969099864513726
6.328397833,-0.9563917381241176,-2.091362604307843,0.46261577597078424,11.26330644039608
6.338388833,-1.1987123587515685,-1.70724653397451,0.6925099025001961,11.621786419298038
6.348380833,-1.4091047627711764,-1.0479601282686275,1.019758962990392,12.214698350827453
6.358371833,-1.5598605773986276,-0.12017267536666654,1.4275422032237255,13.019896690807844
6.368363833,-1.6166128843594116,0.6730245996137256,1.8723725276609802,13.659727359847057
6.378354833,-1.6508939230829411,1.3061237799470589,2.3298794092688233,14.129990715082354
6.388346833,-1.741334200594706,1.7955634757313728,2.767769134582549,14.478625271003922
6.398338833,-1.8874924011464702,2.1646645611431374,3.15490461521,14.764068764807845
6.408329833,-2.0550277355060786,2.4579342188490196,3.4618114589550983,15.032659437513724
6.418321833,-2.2136230898754903,2.7034707393,3.6945676743668625,15.28288892247451
6.428312833,-2.3510723213303923,2.9160937873000004,3.8652703938452944,15.518456862160784
6.438304833,-2.472728676165686,3.1060933044372554,3.9798809455394113,15.738648341964709
6.448295833,-2.575148683242157,3.286350179392157,4.062083834749216,15.937917324843136
6.458287833,-2.660460734782353,3.46968796372549,4.116614851847254,16.11335805480392
6.468278833,-2.725257491992157,3.669758484313726,4.149427842472745,16.26074026084314
6.478270833,-2.7600742732529415,3.8909531721176474,4.111312824566863,16.369354634686275
6.488261833,-2.7488900459078427,4.136797336352941,4.009209454253529,16.466036500392157
6.498253833,-2.746613618809804,4.410601968647059,4.010844427469216,16.496538850882352
6.508244833,-2.7563543061823523,4.716229200784315,4.077179592841765,16.49602465219608
6.518236833,-2.778828406303922,5.0519782726274505,4.172819426626078,16.47016074784314
6.528227833,-2.816248941227451,5.416368302196079,4.283514413292745,16.411532992686276
6.538219833,-2.8638157868941176,5.801180936333333,4.38642911488098,16.313435970039215
6.548210833,-2.918223327423529,6.20097409109804,4.455491656671176,16.17726277590196
6.558202833,-2.987612848947059,6.610252140607844,4.467895822435882,16.008515694843137
6.568193833,-3.0781970482235295,7.032170310960784,4.436335398573138,15.795168446450981
6.578185833,-3.2094403280294115,7.491814819960784,4.414654450337255,15.497229755156862
6.588176833,-3.4188243738843136,7.9917585915490195,4.381696218041177,15.115825139294117
6.598168833,-3.7012631352294116,8.489245775803921,4.318240703178431,14.685038641529411
6.608159833,-3.9723099225058824,8.846077212882353,4.173531809550981,14.292243747039215
6.618151833,-4.173274837096078,9.02186886737255,3.982292430472549,14.09233102539216
6.628143833,-4.355260887056863,9.096141117790197,3.963443277296078,13.957062925529412
6.638134833,-4.630697328174509,8.85828024884902,3.7967039181039217,14.1541606312549
6.648126833,-4.821292940272549,8.429246486986274,3.8594672659470586,14.250291225568626
6.658117833,-5.028863598409805,8.057065925201961,4.1687199896137255,14.253146247529413
6.668109833,-5.280348067115687,7.508674876476471,4.3829517212999995,14.515960421647057
6.678100833,-5.49420374544902,6.4979759693,4.55260930257451,15.142726385960785
6.688092833,-5.4982167698215685,5.1503075502803926,4.613300741123529,16.011451759490196
6.698083833,-5.2699228313274515,4.05696223975098,4.484150766633333,16.83708364982353
6.708075833,-4.997370431876471,3.4459825372607846,4.354620218709804,17.247342121117647
6.718066833,-4.644585600405882,3.198486523084314,4.135892024062745,17.324989511509806
6.728058833,-4.257971152405882,3.151263698635294,3.911726148160784,17.276531518764706
6.738049833,-3.8589198028568625,3.1542786147333333,3.738720978611765,17.16490942672549
6.748041833,-3.5033061342882355,3.0668586935352944,3.6355690835862746,16.93817186737255
6.758032833,-3.2558089507980394,2.846690673613726,3.641581098998039,16.802863085215687
6.768024833,-3.096425466366666,2.5389235669274512,3.735909734762745,16.78495381482353
6.778015833,-2.948606536190196,2.2274617078490198,3.850201338135294,16.75672817756863
6.788007833,-2.723418119805882,1.9640953414960785,3.940254094292157,16.620211557862746
6.797998833,-2.455538471178431,1.756804025582353,3.9589832820764705,16.416218573333335
6.807990833,-2.1427118490411763,1.624140069445098,3.8713987416960784,16.245844636411764
6.817981833,-1.7428560831588231,1.5197150922490197,3.690478047264706,16.17273205052941
6.827973833,-1.2931304927666667,1.3494680542294117,3.4820802488725486,16.083404676803923
6.837964833,-0.8725044310019606,1.0883744661450983,3.2470105482058824,15.919888867980392
6.847956833,-0.5140060558254901,0.7142053580666667,2.989561627156862,15.649992001000001
6.857948833,-0.25046027166862733,0.020712958635294147,2.684208715372549,15.119838470490194
6.867939833,-0.07986980727647047,-0.9546718271490197,2.3367058515686274,14.380794768627451
6.877931833,0.045628110919607986,-1.7795234397372548,1.960932003862745,13.799561793137254
6.887922833,0.1776961383313727,-2.416000797305882,1.5626948647901957,13.359308435686275
6.897914833,0.36538374091960796,-2.8955017742862745,1.1775395981235293,13.022261771901961
6.907905833,0.5858555523509805,-3.266234576815686,0.8393157095490192,12.742743198254901
6.917897833,0.8048572361941179,-3.589917632462745,0.5768825587490194,12.505056157274511
6.927888833,1.0277167294882354,-3.8910339326196075,0.3900992853176469,12.324413366156863
6.937880833,1.2345649756058825,-4.188775747305883,0.2565627784156861,12.195324063352942
6.947871833,1.424081736292157,-4.493370349678432,0.14550871251960765,12.10624066545098
6.957863833,1.599924622664706,-4.80167601932549,0.03501459203725471,12.047194281333333
6.967854833,1.7530785008215686,-5.105156039207843,-0.08825308345294136,12.004100627
6.977846833,1.8701368116450983,-5.3867740306,-0.2096787942960786,11.957424762313726
6.987837833,1.9495081952725493,-5.637931731678432,-0.26179440829607864,11.902987085764705
6.997829833,1.9759155568450981,-5.859575520031372,-0.2193661631000002,11.801089033294119
7.007820833,1.99929999104902,-6.057413757149019,-0.22556937386470605,11.696384518666667
7.017812833,2.015645928256863,-6.243072072090197,-0.24576707123725508,11.57422371180392
7.027803833,2.0184217505705884,-6.420262816188235,-0.26397897249019625,11.453099709764706
7.037795833,2.003280901570588,-6.5869906901862745,-0.28057345935294137,11.341170261333334
7.047786833,1.9752199416882354,-6.739127055356863,-0.2802898034705884,11.246979696627452
7.057778833,1.9489033366490196,-6.877352126336078,-0.2445500392215688,11.164905268901961
7.067770833,1.9253185751137256,-7.005785094557647,-0.17761867567254921,11.089733351745098
7.077761833,1.903544188939216,-7.131966770087059,-0.08874680198627469,11.026933091431372
7.087753833,1.8879992736862747,-7.2686016850282344,-0.031939657319608024,10.99816469009804
7.097744833,1.8844671097254904,-7.433741329126275,-0.025730298376470763,11.002969891941179
7.107736833,1.8982805447529414,-7.647383799047843,-0.07317548182745115,11.064874506980392
7.117727833,1.9249390958313726,-7.911579105734117,-0.0935164718078433,11.267837197745099
7.127719833,1.94436761277451,-8.233407516302744,-0.07710294767058842,11.522381521549018
7.137710833,1.9988759088529413,-8.647437655210588,-0.22436706880784332,11.902108770078431
7.147702833,2.209799102460784,-8.90109771246549,-0.1387076983764708,12.061602574784315
7.157693833,2.4023924444607845,-9.065367760896862,-0.022630444290196273,12.186787109490197
7.167685833,2.60502470477451,-9.244811150504706,-0.09970997734901979,12.363004638509803
7.177676833,2.879625510029412,-9.161095899132157,-0.19624147711372567,12.30452965556863
7.187668833,3.127569159990196,-8.523327522073332,-0.23588547311372568,11.754111544588234
7.197659833,3.1634419426764713,-7.4588377965439205,-0.10331783836862765,10.803112011058824
7.207651833,3.097768756637255,-6.470169650171372,0.09754436088627433,9.958559123882353
7.217642833,3.146453006656863,-5.812012685661569,0.05448452467058808,9.651080717607844
7.227634833,3.208467910892157,-5.497713241583138,0.13042935394509786,9.588527558
7.237625833,3.272830586872549,-5.382408533663529,0.3047591815450979,9.591161890352941
7.247617833,3.342288606813726,-5.295997589643921,0.39083663648627437,9.654229386509803
7.257608833,3.424666221735295,-5.096120210602745,0.3257813348843136,9.832044952137254
7.267600833,3.4936989140490198,-4.822178856661568,0.16522339698235278,9.810668294862745
7.277593833,3.521718054872549,-4.55030638519098,-0.02777560129215703,9.631456419509805
7.287584833,3.4628090540294116,-4.335035947230196,-0.18978917495882372,9.527020811137254
7.297576833,3.261270973919608,-4.19644059846549,-0.30465667166470606,9.577486538882352
7.307567833,2.9747160062725495,-4.107556282238039,-0.3920505469529414,9.72701310145098
7.317559833,2.6236243106058823,-4.0671579036890195,-0.402179030847059,9.86596561445098
7.327550833,2.2036704033509804,-4.030588488316471,-0.31962517685098063,9.894530567196078
7.337542833,1.7700956939000003,-3.916518666473333,-0.23780732679215708,9.896301281901962
7.347533833,1.3748181718607844,-3.727893084506666,-0.17845246714509821,9.930179042686275
7.357525833,1.0337483401549021,-3.479693868173333,-0.15767354650784332,10.004698328490196
7.367516833,0.7739477205666668,-3.163702709918431,-0.17477969340980415,10.094097431156865
7.377508833,0.5622395783705885,-2.803838814918431,-0.20006704948823548,10.16550647772549
7.387499833,0.3063847287039217,-2.4331319121341175,-0.17769788395882374,10.233918288509804
7.397491833,0.02580625758627467,-2.0747902308399997,-0.06566404255294138,10.335872129098039
7.407482833,-0.2686776031784312,-1.7273510728792152,0.1266711706627449,10.495881637784313
7.417474833,-0.540859140198039,-1.3536371534870586,0.3662874082568625,10.733150043784313
7.427465833,-0.7819656495509801,-0.8799038356831369,0.6332154857235291,11.079526467901962
7.437457833,-1.0646163624921567,-0.3316085781145095,0.9362993281745097,11.52245407745098
7.447448833,-1.3829480923156863,0.21751149241490234,1.265907032135294,11.986598843980392
7.457440833,-1.6706120302372547,0.762659010336471,1.583400589462745,12.404695749529413
7.467432833,-1.8953218175901962,1.2897856505325493,1.8764286167882351,12.746046970901961
7.477423833,-2.0702319584333333,1.7832610829443143,2.157332456827451,13.026750843666667
7.487415833,-2.217963478472549,2.2111092129050984,2.4231571531411764,13.267572501607843
7.497406833,-2.3570717025901957,2.5688129973952947,2.6605201374549017,13.48406777945098
7.507398833,-2.4829617281941174,2.8741041751992165,2.8545018491999996,13.69850814882353
7.517389833,-2.5951828610843135,3.140982803414902,2.993555611082353,13.921399090294116
7.527381833,-2.691900823978431,3.379459395591373,3.0819712486117647,14.137922859313727
7.537372833,-2.7725174810960778,3.5952927254933336,3.136609457492157,14.331438963509804
7.547364833,-2.835094084919608,3.79421735233451,3.165408000629412,14.502609364156864
7.557355833,-2.892058554096078,4.004511947289412,3.037302189845098,14.701389012686274
7.567347833,-2.931063876507843,4.220363564092157,2.8657962693156858,14.915786670039216
7.577338833,-2.955227827684314,4.422273962686274,2.7989778143549016,15.071863446294119
7.587330833,-2.9881208549392158,4.623794317607843,2.787269902923529,15.209185812764707
7.597321833,-3.0323652825666665,4.840202532,2.8027070968450976,15.334660733941176
7.607313833,-3.079876674280392,5.088997487882353,2.834007654982353,15.430985314313725
7.617304833,-3.129797280786274,5.395791606411766,2.889381049472549,15.464348532862747
7.627296833,-3.187475643392157,5.791232185686274,2.9777766445117644,15.388896328882353
7.637288833,-3.2569535983333333,6.287118757627452,3.0868806267470585,15.189743602372548
7.647279833,-3.3302762122156864,6.8573615735882365,3.204136676649019,14.903313638490197
7.657271833,-3.4112871293137252,7.458489428529412,3.303533959845098,14.58574913362745
7.667262833,-3.5295915792549017,8.048567433137256,3.358548938641176,14.26715355807843
7.677254833,-3.7125313230000003,8.557135928019608,3.2548667756803917,13.91804434945098
7.687245833,-3.896136375294118,8.867837110254902,2.821893641582353,13.856252614745097
7.697237833,-4.161929244352941,9.112209427078431,2.720811850062745,13.602438063941177
7.707228833,-4.499673867705883,9.1329324867451,2.6897440770274508,13.553770147156861
7.717220833,-4.808082058509804,8.72304105292157,2.5838646221254904,13.82160148747059
7.727211833,-5.084672636823529,8.097273260568628,2.7255739801254895,14.080397818843137
7.737203833,-5.520680682333333,7.339553496490196,3.1015510013215684,14.590223758058823
7.747194833,-5.9979768347450975,6.158231025058824,3.3786384210352938,15.50814811982353
7.757186833,-6.302485769686275,4.838037021431372,3.5537274952509805,16.448093564921567
7.767177833,-6.22526129454902,3.8523743094901963,3.4969068676039208,17.03997436845098
7.777169833,-6.016601529372548,3.276529058333334,3.358972162486274,17.407286137882355
7.787160833,-5.809808034980392,2.94572408254902,3.207812176270588,17.58042069147059
7.797152833,-5.54682279245098,2.785064873156863,2.994132215368627,17.60199100827451
7.807144833,-5.2005477234117645,2.7345939089588236,2.7401848650549017,17.625054517294117
7.817135833,-4.766544905941177,2.6951510571745105,2.5706418003627447,17.629557087490195
7.827127833,-4.302168096333333,2.570347065880392,2.58926734052549,17.59149857180392
7.837118833,-3.8786022608431376,2.351191577331373,2.720355085098039,17.599254346117647
7.847110833,-3.5885498557647053,2.0870078160960785,2.8638124366862745,17.584130897882353
7.857101833,-3.4578128782156865,1.8195351909588238,3.0060575859411767,17.537043181607842
7.867093833,-3.3744594203529408,1.5722296814098042,3.1455301919019605,17.474643768313726
7.877084833,-3.2637730726666665,1.3832044135039219,3.2510115287843133,17.368049759509802
7.887076833,-3.1057117926568627,1.3028396738568628,3.3097437602941175,17.271664825137254
7.897067833,-2.9245581726764702,1.28538028924902,3.2898563021372547,17.193123159431373
7.907059833,-2.7276978078529406,1.24443586097451,3.137487372568627,17.059901128941174
7.917050833,-2.4274490625196075,1.1643615903470592,2.879889594039215,16.905368444627452
7.927042833,-2.0258065021274505,0.9576247395235297,2.648694267060784,16.72398219090196
7.937033833,-1.589627110343137,0.5407256699549022,2.4221478433745096,16.501040181098038
7.947025833,-1.1501252962254902,-0.03432899169215654,2.1616207300803922,16.194431980705883
7.957017833,-0.755719043598039,-0.6608029787509802,1.8843813057470586,15.846918309333335
7.967008833,-0.44319553648039206,-1.2909943271823527,1.613604676923529,15.522702315019606
7.977000833,-0.21151995538235283,-1.8490920979666663,1.3289595877078428,15.21146436335294
7.986991833,-0.06632460206862734,-2.3140791046137252,1.0399019086098036,14.898357005764707
7.996983833,0.023582747596078556,-2.729206548123529,0.784269230198039,14.636442015294115
8.006974833,0.13466120270000012,-3.115709669731372,0.5874696620999998,14.42397423564706
8.016966833,0.2745873892294119,-3.479207597809803,0.43874402368235277,14.247650093196077
8.026957833,0.41477211440588246,-3.8207340625941173,0.31724594494117625,14.09449301935294
8.036949833,0.5632401199352942,-4.143475040045098,0.21367872561764684,13.961998757333332
8.046940833,0.7124563856215688,-4.446810175103922,0.11698819591176449,13.843358141999998
8.056932833,0.846385518719608,-4.736446006182353,0.03937544838235271,13.730207054117646
8.066923833,0.9792121879745099,-5.035049528417647,0.12442075940196055,13.569883187882352
8.076915833,1.0893588491313726,-5.330026504378432,0.24478874332352918,13.384826906588236
8.086906833,1.1757797620725492,-5.596002987535294,0.2629277091588233,13.252382974784314
8.096898833,1.2626889519156863,-5.837004717084313,0.22779633049999978,13.128953740509804
8.106890833,1.3488718430411766,-6.066282056947059,0.17307375832745078,13.003024479333334
8.116881833,1.4338262800215686,-6.293481949868627,0.11962206701568606,12.883723501941176
8.126873833,1.5111592211000002,-6.527041480907843,0.06603707137843116,12.780180451470587
8.136864833,1.5686154697666665,-6.76828177684902,0.016919700335293907,12.697436448333333
8.146856833,1.6075745160509805,-7.022833442672549,-0.022702047596078644,12.645509162117648
8.156847833,1.6385509549882353,-7.291700009633333,-0.063021993201961,12.62084304272549
8.166839833,1.6664491931803922,-7.580492144809804,-0.12412613626078453,12.622634858843139
8.176830833,1.700841713090196,-7.8866117354372545,-0.20794631371176495,12.654850483705882
8.186822833,1.7318353153350983,-8.170583815809803,-0.19690349153529432,12.757275992333332
8.196813833,1.7154472108037258,-8.357302586280392,0.09339831440588212,12.641057648019606
8.206805833,1.7864761826939217,-8.647829659182353,0.04434411908235271,12.852819059019607
8.216796833,1.9671933653605884,-8.884335166535294,-0.030714358274510033,12.998223096392158
8.226788833,2.1694761054782354,-8.846655066731373,0.08203316733333312,12.906766175215685
8.236779833,2.3563267651252944,-8.690122512613726,0.10812571509803899,12.743948298156862
8.246771833,2.7186375364194117,-8.409786219280392,-0.15563080953725514,12.386956948941178
8.256763833,3.1784911923017645,-7.680449940652941,-0.35962727689019625,11.634806072470587
8.266754833,3.482476961948823,-6.741756880260785,-0.41318107663529435,10.76122456972549
8.276746583,3.42372257989,-6.052065503417646,-0.20944145114509827,10.13091336972549
8.286737583,3.3257868425566666,-5.614851968413725,-0.019173635676470825,9.75849574717647
8.296729583,3.3588081330664705,-5.225690966394118,-0.03608530820588259,9.721517703450981
8.306720583,3.450931462811569,-4.9834642566294125,-0.019956554911764946,9.793978867764705
8.316712583,3.5272809882821567,-4.887298253705882,0.2093768579901958,9.787607370901961
8.326703583,3.568406313360588,-4.808309111745098,0.4378273900882351,9.802744237764704
8.336695583,3.5919197331645094,-4.650669542098039,0.5115525761607841,9.869502252470587
8.346686583,3.609345949242942,-4.435018954862745,0.4629049572392155,9.872207665215686
8.356678583,3.600863611321372,-4.221470693901961,0.36248599919999974,9.791342031000001
8.366669583,3.5909240899488237,-4.037775312196078,0.21752811163137234,9.69755726454902
8.376661583,3.5185094540664705,-3.877451778862745,-0.018473629407843344,9.70565691862745
8.386653583,3.371918909242941,-3.7716054008588236,-0.26622921405490213,9.80658559154902
8.396644583,3.156788987899804,-3.7816605709960784,-0.4805136165450982,9.906683827294117
8.406636583,2.8804424906841177,-3.8681562308392152,-0.6392956059960786,10.011669102019608
8.416627583,2.562423403409608,-3.9346876161725493,-0.6709899397215688,10.165312799176471
8.426619583,2.1493233502135296,-3.9735680919372545,-0.5516196971725492,10.303976247803922
8.436610583,1.617157063742941,-3.928916368466666,-0.47639153303725507,10.445654037411765
8.446602583,1.0499353435468628,-3.761908114741176,-0.4464817437431375,10.533050634078432
8.456593583,0.5348810139390195,-3.4956569615058823,-0.4339491484686276,10.584599522705881
8.466585583,0.12954789739000006,-3.134227503231372,-0.4410161391549022,10.63552460407843
8.476576583,-0.21692809796294116,-2.7317934592901953,-0.3835836347627453,10.718567424470587
8.486568583,-0.5430469660805882,-2.342564010466666,-0.22982913291960805,10.88701058809804
8.496559583,-0.8142627722374508,-1.9609272971529408,0.0010907127470586287,11.160135285490197
8.506551583,-1.0297969998237255,-1.519977081878431,0.28197331941372533,11.504374360862744
8.516543583,-1.2617208697315685,-1.0163516626235292,0.5808781481392155,11.906265391294117
8.526534583,-1.5085281162021567,-0.512137692388235,0.8650110727921567,12.301140490803922
8.536526583,-1.7170999036335293,-0.022831542505882145,1.1276283535333331,12.664502111117645
8.546517583,-1.9047518210060783,0.4604281392588237,1.3670015302490195,13.001857675882352
8.556509583,-2.085148398555098,0.9150649094156865,1.5925827734647056,13.309912887098038
8.566500583,-2.255669739692353,1.3236621823960786,1.8002423952686275,13.584675691058823
8.576492583,-2.424779047045294,1.682771018356863,1.9777486926803918,13.831014603764707
8.586483583,-2.596441718829608,1.9989450452980393,2.1316385805039215,14.053791601333334
8.596475583,-2.7627884346139218,2.2824997491607846,2.2577333475117647,14.257208939411766
8.606466583,-2.9213299544766667,2.54542193347451,2.3557514273274505,14.44697837082353
8.616458583,-3.070885318543333,2.796838585964706,2.4252850254019602,14.624921148549019
8.626450583,-3.2161875841707843,3.0432614067294117,2.465197872949019,14.784842606254903
8.636441583,-3.348132040425686,3.302387819415687,2.4556915607470584,14.927713848941178
8.646433583,-3.4407196448178428,3.5794042813960782,2.4044393855941175,15.059716531745098
8.656424583,-3.5005575676119607,3.866229229807843,2.350338286466666,15.1581239607451
8.666416583,-3.549799911431568,4.15395313602353,2.302160714896078,15.217318531372548
8.676407583,-3.610609297506078,4.43689974092549,2.295700212307843,15.222423062941177
8.686399583,-3.693136234239412,4.731813750396078,2.3342174383886274,15.194576392882352
8.696390583,-3.78534876842549,5.056866453258824,2.4068178093494117,15.13999596654902
8.706382583,-3.884647024462745,5.412560377592156,2.507201752878823,15.053224935254903
8.716373583,-3.996174505588235,5.798152308062745,2.624496405878823,14.940617052607843
8.726365583,-4.122162288607843,6.217660267670588,2.761935662663137,14.802436664254902
8.736356583,-4.261768747078431,6.6736925731019605,2.9052439532317647,14.627294226137256
8.746348583,-4.421902526803922,7.136310345415687,3.006151719859215,14.413609404392156
8.756340583,-4.610391524705882,7.540067086886276,2.8918443634945095,14.141559480313724
8.766331583,-4.816143589843137,7.804880558847059,2.511273930063137,14.076364492470589
8.776323583,-5.174401770568627,7.794182882964706,2.1119383141023524,14.195781396588236
8.786314583,-5.405011817000001,7.488408862788236,1.5704219398670585,14.617101734235295
8.796306583,-5.556338830068236,7.213418850921568,1.5334636645945097,14.730937808745098
8.806297583,-5.777319160087843,6.780216551843138,1.943485858280784,14.865068756784316
8.816289583,-6.045229449303529,6.156494241666667,2.4043246438690193,15.169134436588235
8.826280583,-6.250026755942745,5.380917562568627,2.72252510077098,15.669213651098039
8.836272583,-6.2194714771192166,4.4664517636470595,2.8988290172219604,16.265012964627452
8.846263583,-5.968096282413334,3.6141828664509807,2.778136495633725,16.851368759137255
8.856255583,-5.751337567511373,2.9981656042745106,2.5045508014572544,17.268327698549022
8.866246583,-5.562707250511372,2.6046748193529417,2.40398320949647,17.521682782764707
8.876238583,-5.281967843472156,2.5030774983254904,2.2936482450650977,17.647422841568627
8.886230583,-5.010310561001568,2.5543710396588235,2.1125910927121567,17.7630103672549
8.896221583,-4.819127624750588,2.5140212617764712,2.0985773575945097,17.656121823196077
8.906213583,-4.637105670299608,2.353312821129412,2.1978129538396076,17.45517265452941
8.916204583,-4.386457628550588,2.151826724011765,2.368138350192549,17.284882873705882
8.926196583,-4.075120831042745,1.9767694569333336,2.5601342443298036,17.131234003019607
8.936187583,-3.7466117129250978,1.8494922997960788,2.708334837192549,17.01110646301961
8.946179583,-3.4411656413172547,1.7723515085529413,2.84626407336902,16.871583479490194
8.956170583,-3.162639565768235,1.7419407590627451,2.8690137779964706,16.65197162654902
8.966162583,-2.8369487710427452,1.723447322984314,2.730965768741568,16.45133344380392
8.976153583,-2.444472374689804,1.6175397097490196,2.518621793427843,16.342667491843137
8.986145583,-1.980821055474118,1.4079178999450983,2.279234216427843,16.264299200078433
8.996137583,-1.5028494235133332,1.0865002964156865,2.106964609408235,16.165671028313724
9.006128583,-1.0490900568466666,0.6605311863960788,2.0077236532317646,16.044427929882353
9.016120583,-0.5677051186113725,0.15611748225882383,1.8628002526827447,15.88902917027451
9.026111583,-0.08239160802313726,-0.3849663469764703,1.6061386993650977,15.659428458313727
9.036103583,0.32359782968274514,-0.8872809007999996,1.2816593905219607,15.365426594980391
9.046094583,0.6436667443101962,-1.340393095349019,0.9563304008749016,15.053834909529412
9.056086583,0.8924502579964707,-1.7796990048196075,0.6845883797180389,14.721680093176472
9.066077583,1.090120714427843,-2.2031488706627447,0.47376134983960755,14.391584751411765
9.076069583,1.2693636592513726,-2.5913372514274506,0.29823102580431343,14.096763797470588
9.086060583,1.4465978103298038,-2.9392833055647056,0.13078624017882326,13.84059451852941
9.096052583,1.63036789882,-3.2566892261921567,-0.031590302174117915,13.625231954058824
9.106043583,1.8149291041141176,-3.5543094302313722,-0.18229799766431398,13.448346478215687
9.116035583,1.9953641013101961,-3.8434689310549017,-0.3118890671349022,13.299278895627452
9.126027583,2.1716360644082355,-4.123871160211764,-0.41669205823294136,13.165757660039215
9.136018583,2.335797652780784,-4.39001465589804,-0.4958577029976473,13.038458385784313
9.146010583,2.4766119052317648,-4.6445087896823525,-0.5161840262172551,12.901274429882351
9.156001583,2.5828133123886277,-4.8830609142117645,-0.48326337660941204,12.741807573411766
9.165993583,2.6696309646435292,-5.090741035662745,-0.42401012092901985,12.57242469654902
9.175984583,2.7544925627415684,-5.257070553756862,-0.36449571828588256,12.411491447313725
9.185976583,2.8416799195337257,-5.377799322354901,-0.34527012481333363,12.279158286058824
9.195967583,2.9316469853123523,-5.477283001041176,-0.34721962377352966,12.150337962019607
9.205959583,3.013695677145686,-5.573473436158823,-0.3547897587852944,12.027237810372549
9.215950583,3.0790927656947056,-5.66833001819804,-0.37553098208529434,11.911141072431372
9.225942583,3.1352121516750984,-5.769010060139215,-0.4049901603009807,11.798013942039216
9.235934583,3.189089961694706,-5.8846455943450975,-0.45364910104607864,11.676946259137255
9.245925583,3.241475504949608,-6.018076246568628,-0.5138577258303924,11.55513293462745
9.255917583,3.2994615629496074,-6.162462322313725,-0.5607087906147061,11.460371456882354
9.265908583,3.345468074831961,-6.272756883647058,-0.4383973527127453,11.424903112196079
9.27589975,3.369618313700588,-6.337461472686274,-0.12881319216372572,11.242284940568627
9.28589075,3.563573529543725,-6.308480814647059,0.15870210752254876,11.027795974882352
9.29588275,3.6790951118378437,-6.184878701313726,0.6076025298362743,10.691732029392158
9.30587375,3.7541355946903923,-6.2910213268039215,0.5879745447382351,10.806750537039218
9.31586575,3.898997536317843,-6.441547300137254,0.2753768954833331,10.855553544294116
9.32585675,4.053925396631569,-6.454735637784313,-0.12146260139901985,10.775113280960785
9.33584875,4.1240292702119605,-6.283782726215686,-0.5662343389872552,10.53894271645098
9.34584075,3.9925704481727453,-5.883746957784314,-0.8347332078500002,10.084845887431372
9.35583175,3.6940624073884316,-5.402377130529412,-0.7187206428892159,9.529511128607844
9.36582375,3.468360823270784,-5.022172044960785,-0.43622269139902,9.105997838411765
9.37581475,3.3848286241139216,-4.74757300545098,-0.3300640434186278,8.910937768411765
9.38580675,3.3350958996237257,-4.645802595364705,-0.2014785889872552,8.87354498409804
9.39579775,3.409069896192353,-4.605462849482352,-0.078981347261765,8.856991846450981
9.40578975,3.626622330529608,-4.48732047632549,-0.18352036804607874,9.08117150345098
9.41578075,3.8296264336276464,-4.2971579135999995,-0.17998745455196108,9.243341733882353
9.42577275,4.0114206906237255,-4.037173416266667,-0.1936934598852944,9.354972347254902
9.43576375,4.168975372449216,-3.756526349305882,-0.32613541673627483,9.455950866960784
9.44575575,4.285847890860981,-3.4884093036196075,-0.5598686874813729,9.526300528333334
9.45574775,4.388100696233529,-3.271636968160784,-0.8075568771480395,9.557020589313725
9.46573875,4.40153627931196,-3.169543218533333,-0.9299438473245101,9.607432695019607
9.47573075,4.277646586174706,-3.138862889474509,-0.8446947049519611,9.645520229980391
9.48572175,4.038117254311961,-3.072800049572549,-0.660415323971569,9.608640930411765
9.49571375,3.685255767076667,-2.93326392965098,-0.5216237953852944,9.535715204058823
9.50570475,3.2525148704688234,-2.734158279886274,-0.5255205461500003,9.495569201313726
9.51569675,2.78696219713549,-2.509649310003921,-0.6215584319950984,9.472577151705883
9.52568775,2.25149301341,-2.2845751551215687,-0.692811317844118,9.454782640921568
9.53567975,1.6802539120374511,-2.0753264779450977,-0.7030427929913728,9.485711512686274
9.54567175,1.167298308645294,-1.8834341139058821,-0.6774005281286277,9.598758277
9.55566275,0.7339672331943139,-1.693289115768627,-0.6252971588835298,9.742854211666666
9.56565475,0.3759097265668629,-1.488514796807843,-0.5561413253345101,9.91294636017647
9.57564575,0.07133327350803934,-1.258277493180392,-0.4848963446913728,10.117040958607843
9.58563775,-0.20918398527627438,-1.0015204181215682,-0.3911293798325493,10.345345787254901
9.59562875,-0.48865876570764694,-0.7125295004549017,-0.2641029908541179,10.603477904431374
9.60562075,-0.7776467482958822,-0.3386995539450978,-0.16720902677568658,10.902834988705882
9.61561175,-1.0929831673547057,0.07133490734901989,-0.07562165740313756,11.229477549058823
9.62560375,-1.3971448235703923,0.44092595503529436,0.09097333289098011,11.523710407725488
9.63559475,-1.6858890345311763,0.7935493460549022,0.2672892389498036,11.800395200372549
9.64558675,-1.9533952754723531,1.1393985656235297,0.428477028028235,12.071505409921569
9.65557775,-2.188318789923333,1.4845777976431376,0.5729499320478428,12.353636499352941
9.66556975,-2.3947984665311766,1.833578758231373,0.7039954133027448,12.664204677
9.67556175,-2.5968876408841175,2.1591634086823532,0.8193043604458821,12.994713879156864
9.68555275,-2.7977581179037254,2.4452846619529414,0.9321209777831369,13.31917696162745
9.69554475,-2.977390900029216,2.6948591433352944,1.04407156229098,13.62075604064706
9.70553575,-3.1320765939058823,2.9203703144529416,1.1288523341115684,13.902136824647059
9.71552775,-3.2662899590137258,3.127622006903922,1.1858049282801957,14.154078758705884
9.72551875,-3.373994559209804,3.3222453416686273,1.2322151531292154,14.37968939264706
9.73551075,-3.4597963781117644,3.5143684986294126,1.264889073168431,14.582974932745097
9.74550175,-3.532098558288235,3.7148506632274514,1.2872897334037254,14.772542786352941
9.75549375,-3.5975838366215687,3.931463186294118,1.300933374168431,14.950518592705885
9.76548475,-3.660109879229412,4.168120491941177,1.3095145243056858,15.108300734156861
9.77547675,-3.7189746934843133,4.435460912686275,1.3196032872468624,15.226519036254905
9.78546875,-3.7750883239803925,4.752288188294118,1.3413409850115685,15.276431221784314
9.79545975,-3.8500128255686277,5.131673941411765,1.3635972978366666,15.236640227411767
9.80545175,-3.9523891619607845,5.58008474527451,1.3604254212288232,15.098522961843138
9.81544275,-4.0664089786470585,6.09332149654902,1.3393275435817644,14.87615822317647
9.82543475,-4.184053570294118,6.659562374980392,1.3010780597778429,14.592140723588235
9.83542575,-4.29118604337255,7.26533779182353,1.2626446323268625,14.251237398647058
9.84541775,-4.397843825725491,7.87563918282353,1.3479717547915682,13.870343654960784
9.85540875,-4.553260152117647,8.31428584745098,1.2933249384778431,13.552546161509804
9.86540075,-4.727336084431372,8.341671614509803,0.9887615212229409,13.541744267588236
9.87539175,-4.930617798380392,8.199905389529413,0.8465227064582351,13.542087658960787
9.88538375,-5.212968789850981,7.9805028962941185,1.0061450497915683,13.685775496607842
9.89537575,-5.552078290909804,7.310895329333334,1.3071900712817646,14.184630222882353
9.90536675,-5.766924880243138,6.101771021450981,1.8304819124974507,14.970884844843138
9.91535875,-5.470361807105882,4.560668063921568,2.4104450823013726,16.090721768960783
9.92534975,-4.620909915047059,3.1418829304509805,2.260491021248431,17.514513016215684
9.93534175,-4.361239310066667,2.283934667039216,1.7371438723660781,18.227982162098037
9.94533275,-4.58211665457647,1.7647907490000003,1.630270883805294,18.307781200921568
9.95532475,-4.740254487249019,1.4878105396862749,1.6999907988249017,18.098496281392155
9.96531575,-4.844178896915686,1.431754234784314,1.81265630002098,18.042149109039215
9.97530775,-4.849120034896078,1.3854771114901967,1.9220904492758824,18.019838363411765
9.98529875,-4.708476819209803,1.3668218909803926,1.9954303554523527,18.015354517764706
9.99529075,-4.366042040954902,1.3553935194509807,2.0393856411386273,18.1271779612549
10.00528275,-3.9165544207784313,1.3177206542352944,2.0965419906896074,18.28235146545098
10.01527375,-3.5306616912294113,1.2467361899803926,2.2294609198464705,18.283171443490193
10.02526575,-3.2501595663862743,1.118651108156863,2.4002368785739217,18.192386420607843
10.03525675,-2.9963975039352944,0.9499643022549022,2.545136637932745,18.089804308647057
10.04524875,-2.724064283288236,0.7844324131568631,2.6428405273584317,17.919284906058824
10.05523975,-2.449199676954902,0.6605685853529414,2.681199294627058,17.656699434058822
10.06523175,-2.2268789988960784,0.5713437662725493,2.648779212538823,17.43289307162745
10.07522275,-2.041005242680392,0.5058729856254905,2.5213550954015687,17.28186895478431
10.08521475,-1.7925091483249018,0.4163763971156865,2.3257872862643136,17.128852150764704
10.09520575,-1.422512728050392,0.2296396721686278,2.1201628624015685,16.976752559
10.10519775,-0.9576776802072549,-0.09163109759607808,1.9455834160094114,16.88215005135294
10.11518975,-0.45688269157980393,-0.5841155187725486,1.8805907885486273,16.807341877235295
10.12518075,0.020395024890784316,-1.1620809587725487,1.8981240889015683,16.708265947039216
10.13517275,0.4195893560476471,-1.671737895635294,1.8731772528819604,16.59035387154902
10.14516375,0.7635515760476471,-2.0664787580666664,1.8080423890388233,16.385811343411763
10.15515575,1.050037856067255,-2.3830743806549015,1.7176807795094113,16.102377689529412
10.16514675,1.2647642163064705,-2.6800805010411763,1.6144046540721568,15.762717359254902
10.17513875,1.4240662410907843,-2.988865642335294,1.5040399490996075,15.419628662058821
10.18512975,1.561534968992745,-3.297211726507843,1.3879957403858822,15.098403229529412
10.19512175,1.69102615713,-3.6003217896843136,1.2777569687466666,14.800736333784315
10.20511275,1.815264860228039,-3.9017696268999993,1.1750610132211763,14.531400495999998
10.21510475,1.9453938190907842,-4.204036796605882,1.0805026219741174,14.289748396196078
10.22509575,2.090442155059216,-4.504146011252941,0.989888063032941,14.075997407019607
10.23508775,2.248420244098431,-4.805910973998039,0.901471982660392,13.89842843652941
10.24507975,2.4106141813337256,-5.118004859645098,0.81553950140549,13.758810811705882
10.25507075,2.572969083274902,-5.448147540860784,0.726436384660392,13.661448105745098
10.26506275,2.734748579059216,-5.800697727076471,0.63993297440549,13.602668796392155
10.27505375,2.8965511828043136,-6.17475266535098,0.5613900753074508,13.581500455607843
10.28504633,3.05950923074549,-6.571472305841176,0.4931474048760782,13.605675014823527
10.29503733,3.216012371098431,-6.992056256331373,0.4333164930133331,13.679352709745098
10.30502933,3.3704097169807845,-7.442463070429412,0.3865930437176468,13.809463504313724
10.31502033,3.534638026667059,-7.9087343435078425,0.3936069995999998,13.981644074392156
10.32501233,3.7284589629219607,-8.375783640272548,0.4841845863450978,14.184292468941175
10.33500433,3.9394450886474512,-8.816553176547059,0.6453959219333331,14.388486882254902
10.34499533,4.1426717642945095,-9.196375900056863,0.8528298412078429,14.560550249941176
10.35498733,4.344719738706274,-9.506672099488235,0.97750063062549,14.712248502254901
10.36497833,4.523360231137647,-9.654037194017647,1.1636956511549017,14.82886728590196
10.37497033,4.626571291961177,-9.459087664870587,1.4766148542333328,14.673994380176472
10.38496133,4.709826510870981,-9.147593841086275,1.576502950998039,14.534549090980391
10.39495333,4.851993052321961,-8.771729602360784,1.3379828456392155,14.325794144803922
10.40494433,5.056335141674902,-7.979948362556863,0.8560003218352938,13.880593867941176
10.41493633,5.149686266321961,-6.767671786282353,0.3182506322666664,13.048038164607842
10.42492733,4.705098028165098,-5.2550984143215675,-0.04761293148039244,11.738660645000001
10.43491933,3.733717169165098,-3.794430959223529,0.12504666620980365,10.281466908392156
10.44491033,3.348445422557255,-2.895693230262745,0.606625456843137,9.531489124862745
10.45490233,3.4304978692239216,-2.3727160839882355,0.7231084933764703,9.393648335843137
10.46489433,3.4691922616415685,-2.1189160719294113,0.7005683827823527,9.537951483607843
10.47488533,3.5041262100690194,-2.0792973450666663,0.6342842315039213,9.561272484392157
10.48487733,3.53997908605549,-1.9989951133215684,0.5588875729803918,9.612916654705883
10.49486833,3.4849465007437255,-1.908632735615686,0.4704821207784311,9.659980268921569
10.50486033,3.235743810445686,-1.8110333737333333,0.3917737583725487,9.591082258725491
10.51485133,2.9026423579143135,-1.6734172386549018,0.3047941783862742,9.474756957352941
10.52484333,2.656668568914314,-1.4504440686745097,0.04256985350392124,9.55392751754902
10.53483433,2.589107122031961,-1.1640690922039212,-0.14634875422156893,9.62467110082353
10.54482633,2.5920582920319606,-0.8394129337137254,-0.27892411644705917,9.651589409450981
10.55481833,2.6022043806398036,-0.5201933100078429,-0.35076924211372573,9.709479134392156
10.56480933,2.6074843303849016,-0.26864516398823507,-0.3304046260882356,9.842099285019607
10.57480133,2.620180877012353,-0.09731565737843112,-0.24167819614705913,9.95087508137255
10.58479233,2.620800211796667,0.011687276915686528,-0.0982887038137258,10.00198519037255
10.59478433,2.529999476362745,0.11171967668039243,0.07709118912745067,10.047626790941177
10.60477533,2.296568905088235,0.27456160580392186,0.23139662195098007,10.074831199078432
10.61476733,1.9528319978529414,0.5296071090980394,0.340267030833333,10.022303767313726
10.62475833,1.5569962500294117,0.8646871907450983,0.39604164894117616,9.913333342607842
10.63475033,1.1886819704803924,1.2462618776078433,0.3969745664509801,9.804778801627451
10.64474133,0.8713738244411766,1.5978835030196081,0.37206790423529384,9.749486083196079
10.65473333,0.5819397910882355,1.846206324901961,0.3784932604705879,9.805866858588235
10.66472433,0.3326667851862746,2.017515033745098,0.41952950145098,9.95579879737255
10.67471633,0.14007526614313737,2.161540233092157,0.4797647712019604,10.16419808254902
10.68470833,-0.007480000484313623,2.3014444982882356,0.5521317923901957,10.365909361313726
10.69469933,-0.12716011109215675,2.4506153505980395,0.6274011650647056,10.54613321717647
10.70469133,-0.235314889562745,2.6177009595392158,0.6993275638019604,10.718192282333334
10.71468233,-0.343375298562745,2.807587235598039,0.7713927769549017,10.884780186588236
10.72467433,-0.4626017454843136,3.0184238904215692,0.8482267040254898,11.044996662666666
10.73466533,-0.6007367693350979,3.2429840521078437,0.9303990128686271,11.193660288117645
10.74465733,-0.7566514103743136,3.482861958264706,1.0178570613588231,11.320888433117647
10.75464833,-0.9231712324135293,3.743967137519608,1.1098329438294114,11.423544710686274
10.76464033,-1.0971095946684313,4.033119495578432,1.2088857400450976,11.496076508607844
10.77463233,-1.2780721196292157,4.3523643885,1.3093609689274508,11.540194609137256
10.78462333,-1.4671035327664705,4.701830707225491,1.4028892527313723,11.557193697568627
10.79461533,-1.666094084099804,5.083942202990197,1.4896814753196075,11.541049107764705
10.80460633,-1.8726481636684311,5.5002550605392155,1.578061366005882,11.490603215019608
10.81459833,-2.0905673215311764,5.955591834127451,1.6693532159470583,11.397017745411764
10.82458933,-2.336753742805686,6.434207829147059,1.690398468668627,11.270021458156862
10.83458133,-2.6886315563939216,6.862445521166666,1.2743527515117643,11.354567600313725
10.84457233,-3.0216830210213725,7.200631758284314,0.8634203642764702,11.358753798156863
10.85456433,-3.2826142054919605,7.499350917852942,0.8231241973549016,11.132746705431373
10.86455533,-3.54832176259,7.652082552519608,0.7431758827078428,10.957923387686273
10.87454733,-3.803616208237059,7.793805806245098,0.6262108005745095,10.850750739666669
10.88453933,-4.028688826766471,7.861201306862745,0.5468965276176467,10.804932700588235
10.89453033,-4.158485457393922,7.790385723962746,0.49379459009803883,10.728956267196079
10.90452233,-4.202848832870393,7.541130729786275,0.5348443627901958,10.707139185666666
10.91451333,-4.132419068752745,7.058718791158824,0.8129573840843133,10.780332323509803
10.92450533,-3.923739371497843,6.458235792335294,1.165757211888235,11.0551452817451
10.93449633,-3.5502600170664707,5.728253396452942,1.416422533086274,11.635129245862746
10.94448833,-2.952923938262549,4.781316163119609,1.6488768960039213,12.481686398745097
10.95447933,-2.1632630679292153,3.8377971088647067,1.8252410043313723,13.419241329921569
10.96447133,-1.5237643680468627,3.22329062964902,1.917811737798039,14.01302564227451
10.97446233,-1.2012145443213726,2.8731191939627454,1.9756407693921565,14.187316555019608
10.98445433,-0.9753470477096079,2.6148033888058824,1.9649597279176467,14.222434837372548
10.99444633,-0.7826054469117647,2.4412094504333335,1.8369340125392153,14.247610949529411
11.00443733,-0.6020873142862746,2.3347948835705887,1.619464413858823,14.333068777960786
11.01442933,-0.3727383059490195,2.2414848900411766,1.437616673480392,14.425544772666667
11.02442033,-0.11359200126078431,2.0748193290019614,1.3962989979764704,14.460595531686275
11.03441233,0.10258623411176472,1.7992087211588241,1.5267250412509803,14.32647652137255
11.04440333,0.15987118803333336,1.4867429410607846,1.5692405246019605,14.176446356980392
11.05439533,0.15392114164117646,1.1692370903549023,1.6144668315921566,14.086488172294116
11.06438633,0.14096584426862746,0.8650005898843143,1.6967691406705878,14.026299370254902
11.07437833,0.14836200454313725,0.5963753066098043,1.786437680317647,13.963120776941178
11.08436933,0.19812228554313724,0.37272142894313764,1.8584241051019603,13.875299980176472
11.09436133,0.28585410410588236,0.1799842339823534,1.8983724658862742,13.76148421790196
11.10435333,0.41728099579215683,-0.00789325980196037,1.9009565138666664,13.634470154980391
11.11434433,0.6183144840274509,-0.21883162178235255,1.8716050820725487,13.553352565764706
11.12433633,0.8876333159098039,-0.4698218975862741,1.8256343754411763,13.534066025039214
11.13432733,1.2123464561058823,-0.7644970196254898,1.7715744361254897,13.56274289817647
11.14431933,1.5722204518313725,-1.0885924301549015,1.7200634600666664,13.616159042490196
11.15431033,1.9300395295960784,-1.4089728179196075,1.6573847248784312,13.653240776411764
11.16430233,2.2624350971254903,-1.7052639154490192,1.5473439327215686,13.648690158960784
11.17429333,2.5595727109882356,-1.9828630008803918,1.3969934906627448,13.618572659941176
11.18428533,2.8276526898509804,-2.2522595319392154,1.25348663552549,13.57084393492157
11.19427633,3.071220716478431,-2.5259947084686267,1.1364347337215683,13.50867978390196
11.20426833,3.296822771733334,-2.8113652823705877,1.0318067205647055,13.446854624843137
11.21426033,3.5100198443215684,-3.1160329176254895,0.9373872637607841,13.393308631941174
11.22425133,3.7124433418313725,-3.4358315074686265,0.8649241647803919,13.346540372529411
11.23424333,3.8983460073019605,-3.760074955743137,0.8039421998549017,13.299304722529412
11.24423433,4.071084016439216,-4.084934987174509,0.7343091640058821,13.252116368215688
11.25422633,4.238153390772549,-4.4015547324882345,0.6557143808980389,13.198707303745097
11.26421733,4.395279374243137,-4.691070122390196,0.5810234296960782,13.116807951686276
11.27420933,4.544011438870588,-4.935845576115685,0.5284650883313722,12.988655023450981
11.28420012,4.696540897458824,-5.127119384978431,0.5087029898803919,12.830516985980394
11.29419213,4.856637306615687,-5.271930323978431,0.5105739326450978,12.691893539862745
11.30418413,5.014213875380393,-5.377969981115685,0.5201352480960781,12.578462951509804
11.31417513,5.1696432949490205,-5.449620649605881,0.535837080115686,12.492337122941176
11.32416713,5.329592850145097,-5.488126674252941,0.559302707488235,12.436566451784312
11.33415813,5.506377476458824,-5.493227464154901,0.633194298452941,12.410913556117649
11.34415012,5.76128309367451,-5.411425971958823,1.093486312060784,12.171301140235293
11.35414112,5.981061729145098,-5.238959227703922,1.5031340316294115,12.029158631411764
11.36413312,6.127096948988235,-5.0560474072725485,1.5140579833352938,12.158380830999999
11.37412412,6.259320208517647,-4.76316935252745,1.4953500633627446,12.31505388501961
11.38411613,6.382184145243138,-4.550157854390196,1.5100191395150977,12.464062623235295
11.39410713,6.4965326786156865,-4.3651551843509795,1.5336891987464703,12.591408183137256
11.40409913,6.5435598764372545,-4.120420214058823,1.5602990301876467,12.778120569450982
11.41409113,6.5337517540372545,-3.7798605003725485,1.54091432079549,12.883195768725491
11.42408213,6.413888983870589,-3.2817259948823527,1.407996652815098,12.784772785784314
11.43407412,6.1120594666941175,-2.6531037637058823,1.1854096641915683,12.484545744411765
11.44406512,5.6287796492627455,-1.85825117645098,0.9066807819562742,11.963128543235293
11.45405712,4.927018564596079,-0.8665270572352937,0.6090387023680389,11.16390460735294
11.46404812,4.039274289007843,0.10332625119607888,0.39092820297588204,10.254755592058823
11.47404013,3.3161701793215683,0.7341126627647063,0.27304840277588205,9.679801120686275
11.48403113,2.923319091203922,1.098371691784314,0.20320143980529384,9.523829083627453
11.49402313,2.6419056004588235,1.3744862608627455,0.20574196615039186,9.51124959245098
11.50401513,2.3948249106156863,1.566858795901961,0.3144550190033331,9.511460356568628
11.51400613,2.1614266423411763,1.681137638450981,0.5211860126621566,9.441297997352942
11.52399812,1.8825760349686276,1.7673350100196084,0.7050001616327448,9.350162493235295
11.53398912,1.5763996575764707,1.9123610119019612,0.7730176454817643,9.303412365784313
11.54398112,1.344813332517647,2.1274040848823534,0.8149747426778428,9.340495607862746
11.55397212,1.243770619890196,2.394453761411765,0.8276609850072546,9.455470805
11.56396413,1.1983347733411764,2.6797607840980393,0.7834588565347056,9.528572771647058
11.57395513,1.1645772495960787,2.9545019110196087,0.6961524945719605,9.574568570745098
11.58394713,1.1168981818313726,3.199513248313726,0.5967577408464703,9.628387129156863
11.59393913,1.03753379767451,3.408109192784314,0.5124875054739213,9.712294259058824
11.60393013,0.9319526711705884,3.59593624,0.4599234874347056,9.827432772705883
11.61392212,0.7967960297980393,3.7889035286274515,0.44638559241509773,9.958471580254901
11.62391312,0.608310012837255,4.012212363235294,0.4633788507974507,10.040427375686274
11.63390512,0.36912135581764716,4.280148580843138,0.4951091796445095,10.052120716196077
11.64389612,0.09256766081764715,4.593946391098039,0.5325439685876467,10.002966262470588
11.65388813,-0.20408344177058813,4.9386979393529415,0.5621163979013722,9.915502168470589
11.66387913,-0.48825070453529396,5.281842443392157,0.602094682658235,9.835543208411766
11.67387113,-0.7387136302803922,5.602136441431372,0.6902637697562742,9.790044894823529
11.68386213,-0.953493750535294,5.897803067823529,0.8267397264229408,9.768296192294118
11.69385413,-1.1472032342803922,6.173861950784314,0.9585780614425488,9.764123827941177
11.70384612,-1.3307411194960785,6.438602068843138,1.0564581125798036,9.772691446647059
11.71383712,-1.5146913595352942,6.688531602411764,1.1389948634621565,9.775823231784313
11.72382912,-1.659923355398039,6.875941468000001,1.0831725389523528,9.72953551372549
11.73382012,-1.6504199789862746,6.788733204490196,0.5827971741680389,10.123338774705882
11.74381213,-1.7221412439862742,6.6071972568627455,0.6465277489366664,10.30731643764706
11.75380313,-1.8005473497705884,6.377136665372549,0.9257776301974506,10.619736577254903
11.76379513,-1.7132642419666664,5.929990361980393,1.0812686934817646,11.089229218392155
11.77378613,-1.3496421294176468,5.3292104392549025,1.2110776376641175,11.792809808490196
11.78377813,-0.8099584961823528,4.770282192019608,1.2288290291268624,12.561191243196077
11.79377012,-0.4351083939470587,4.411569384568628,1.1073710439503919,13.070600346156862
11.80376112,-0.3362047705156862,4.223077038862746,1.0068705229896076,13.215395660313726
11.81375312,-0.26110768433921555,4.19404131372549,0.9263731877621566,13.240333541529411
11.82374412,-0.15130542990784301,4.241989961078431,0.9141245092131369,13.332247195392158
11.83373613,-0.024178870123529324,4.228332309921569,0.9157427433503917,13.396820592235294
11.84372713,0.11340383262156872,4.15606496082353,0.8791558379190193,13.425095393392159
11.85371913,0.24395478846470597,4.032516424058824,0.7853992905660782,13.41765203437255
11.86371013,0.29874310168039225,3.866543683490197,0.7164347756249017,13.315858073490196
11.87370213,0.23389748009607855,3.6201645792549026,0.7205253271935291,13.157921267941177
11.88369313,0.10478883742941189,3.222958244196079,0.7177522966366664,13.065662806549017
11.89368512,-0.024690512962744982,2.8091016299019613,0.6797006808921565,13.003844824843137
11.90367712,-0.08983152786470576,2.5014495815490205,0.6214856642647055,12.858121268117646
11.91366812,-0.07291998431372537,2.2933618920392163,0.600860559798039,12.660431751215686
11.92366013,-0.024674249672548908,2.1651808127450987,0.6389304939549016,12.5580163427451
11.93365113,0.04275846388627462,2.098302102725491,0.6962024120137252,12.513056417000001
11.94364313,0.16527802253333346,2.0450665290392163,0.7409301507156861,12.48490150837255
11.95363413,0.3728576893960785,1.9468140331764712,0.7879915045823527,12.459520260137257
11.96362613,0.6448646124941178,1.7468529816078435,0.8737076474647055,12.447592901705884
11.97361713,0.9250893959254902,1.4624798624509812,0.9857556855823526,12.46965585229412
11.98360912,1.1948375052196079,1.1389886413725496,1.0602920252137253,12.499546317196078
11.99360112,1.4521026917686277,0.8261994242941183,1.0513642684862743,12.505421080529413
12.00359212,1.6660302335333332,0.5777666346470595,0.9921438962274507,12.457681231
12.01358413,1.8400178729058825,0.3776820062549026,0.9639627903745097,12.35624698547059
12.02357513,1.9910065156313725,0.17540557772941243,0.9771169375058821,12.23045932345098
12.03356713,2.1308352600235296,-0.03748978425686209,0.9961654922019605,12.106498894058824
12.04355813,2.268185358239216,-0.24573262568627385,1.0014289278627448,11.97755099690196
12.05355013,2.404840646709804,-0.45389096338039153,0.9827943789745095,11.844185591529412
12.06354113,2.546125926788235,-0.668976508929411,0.9455759140784311,11.718246255392158
12.07353312,2.6937829464352943,-0.885350855321568,0.8962105995901959,11.600193385333334
12.08352512,2.843719738121569,-1.0992242673411758,0.8498144367294115,11.480150912941177
12.09351612,2.990023528611765,-1.3098041720862739,0.8133004079647057,11.348959168960784
12.10350813,3.1304633528862746,-1.5164145282431365,0.7844807231176469,11.207589367705884
12.11349913,3.2641526297490198,-1.7189953387921562,0.7549908789198035,11.058999346137252
12.12349113,3.391435880592157,-1.9183910677725484,0.7223105814884312,10.90714467572549
12.13348213,3.517822185768628,-2.115050185184313,0.6844787751962743,10.758798973411762
12.14347413,3.640829774807843,-2.3127785404980385,0.6403149961354899,10.615319946607842
12.15346513,3.756916897513726,-2.5126163648509796,0.5893303397099997,10.475931557039216
12.16345712,3.8689258165941176,-2.714868309654902,0.5315346487080389,10.343289001705882
12.17344812,3.9798456974882357,-2.9238503652627443,0.46552677263548997,10.223158889980393
12.18344012,4.092304966831373,-3.1446536564980385,0.3856996329296076,10.120809849235293
12.19343213,4.208066055664706,-3.3819151400274508,0.28732362898843106,10.044204027921568
12.20342312,4.329225615013725,-3.63047563402745,0.19548837781196057,9.987173122686274
12.21341513,4.464894375013725,-3.886004094419607,0.12655782257666642,9.948009687980392
12.22340613,4.625894649052941,-4.141667063694117,0.06608997695705858,9.938936750666667
12.23339813,4.770156465739215,-4.349063927674509,0.12882514350607818,10.002752311960785
12.24338913,4.771039441170589,-4.294687527870588,0.6175243294688232,9.644002410980391
12.25338112,4.869442772229412,-4.162906787870588,0.5396222121099998,9.515322769803921
12.26337213,4.989565517052942,-3.998858543949019,0.26663701691960756,9.277550935686275
12.27336412,4.962395672837255,-3.637715060419607,0.15465444182156834,8.90828635882353
12.28335658,4.692003120170589,-3.1543930425764697,0.08669548458627423,8.35076373254902
12.29334758,4.26336881487647,-2.7367970996352935,0.12093152840980365,7.76432971
12.30333958,3.969966585856863,-2.486325758498039,0.27500523664509774,7.387861716058824
12.31333058,3.9061201273078434,-2.343709634949019,0.3916404957039213,7.276331465156863
12.32332258,3.8399155669352942,-2.3284240272431367,0.478516524088235,7.251650249901961
12.33331358,3.7226717875823527,-2.377066039713725,0.48613569830392134,7.154631751784313
12.34330558,3.568215573998039,-2.3528355907921563,0.4662665384999997,7.087300964058824
12.35329658,3.3782128036392156,-2.2469363184392153,0.43196457018039186,7.071044654333333
12.36328858,3.2041885303176474,-2.0742441125568623,0.3444756848078429,7.129592248058823
12.37328058,3.139479578807843,-1.8967822582627445,0.2578845433764703,7.239368877568627
12.38327158,3.2172928972941177,-1.6739271905176465,0.18419726674588208,7.36894534390196
12.39326358,3.384110497392157,-1.3385949907529409,0.22005546578509777,7.4147645260784305
12.40325458,3.548077574117647,-0.9782837150862739,0.29743668937333306,7.4344296426862755
12.41324658,3.637131746235294,-0.6980224783019603,0.3532557004517644,7.555995789411765
12.42323758,3.639275570529412,-0.5010203070274505,0.3452440805988233,7.741579618862745
12.43322958,3.603339301125491,-0.37288226773333283,0.2661529448458821,7.843263948313726
12.44322058,3.5505342230098034,-0.30874404457647014,0.18558588013999974,7.885175435039216
12.45321258,3.4571719010588233,-0.26269229128235244,0.15203239985176442,7.904204568372549
12.46320458,3.297104607254902,-0.17290447698823477,0.14696173456588207,7.913781365235295
12.47319558,3.083117030084314,0.023420730070588716,0.108628538125686,7.911428235627451
12.48318758,2.854083702119941,0.30794147412941225,0.021668633717842844,7.881656379745099
12.49317858,2.626375971274843,0.6385361908941182,-0.05721312441745127,7.853675843470589
12.50317058,2.4092571712081763,0.9603920089529417,-0.05803347874098069,7.852011206411765
12.51316158,2.232512323868961,1.2063139813450985,0.0005275540296075445,7.892541012607842
12.52315358,2.1000754904905294,1.3978423905215691,0.04538968555117618,7.979087214803922
12.53314458,1.9916497795591568,1.5983407151254905,0.04329244120999971,8.096148806235295
12.54313658,1.8914829239317057,1.8141000663274514,0.02316288681980363,8.215288573470588
12.55312858,1.7926218905787645,2.026754322403922,0.01561216084333304,8.339729397490196
12.56311958,1.6938852137552354,2.2403634460000004,0.03173332421196049,8.468419116588235
12.57311158,1.5906581418532746,2.4608581934117653,0.06712801388450951,8.588482164941176
12.58310258,1.482469933912098,2.682297902470588,0.11517101208254872,8.698838730843137
12.59309458,1.3726629444022942,2.900550225509804,0.1605030992119605,8.809384533686273
12.60308558,1.2679249548532745,3.115577293176471,0.19472930596294089,8.929673994921568
12.61307758,1.1703441091866078,3.3288010222156874,0.21953544192764674,9.06073601917647
12.62306958,1.0794121955003333,3.5399883953333338,0.24269509618431342,9.199917012705882
12.63306058,0.9925653759709214,3.7492868884901966,0.26697016730196055,9.343513759137254
12.64305258,0.9044502552258236,3.9587619790196085,0.29615896337843106,9.486438261745098
12.65304358,0.8193590392650393,4.17358661837255,0.33131920263529385,9.627730498078432
12.66303558,0.7422171531081765,4.395237870529412,0.3705376789823527,9.767214388607842
12.67302658,0.6703575613219019,4.623477925803923,0.41541205525882324,9.901584818078431
12.68301858,0.5982706790748432,4.860253219078432,0.4692781737039212,10.024332145196079
12.69300958,0.521215492221902,5.109112643392157,0.5340457779588232,10.128965169862743
12.70300158,0.4381414624669999,5.375059638235295,0.6119551083117645,10.207189875686273
12.71299358,0.3471690998042549,5.653127899666667,0.6912395002725487,10.26908317454902
12.72298458,0.24381557901994116,5.93919100172549,0.7472463760960782,10.312004307117647
12.73297658,0.1269000549022941,6.218021522235295,0.696961972460784,10.31869911045098
12.74296758,-0.007054192568294132,6.499184348019608,0.6313271372843134,10.285479693450979
12.75295958,-0.15087405147025493,6.806612236,0.6303570297490194,10.208703822980391
12.76295058,-0.329609045215353,7.111375868705882,0.5846665670490193,10.128779234941177
12.77294258,-0.5388632944506471,7.39058651564706,0.5477965976315683,10.027632724627452
12.78293358,-0.726256902470255,7.634575495996667,0.6356106813570586,9.910935022999999
12.79292558,-0.8900107335290784,7.915499847035882,0.7128527698864704,9.768190844294118
12.80291758,-0.9565150955486863,8.092595430545687,0.8265272282198037,9.692138212470589
12.81290858,-0.8179087975094707,7.968518282545688,0.9296825685139214,9.903369617
12.82290058,-0.45417585727417653,7.437145119271178,0.8366663230688233,10.501715151235294
12.83289158,-0.02852844731339223,6.600374680035883,0.7401583038923527,11.320792288921568
12.84288358,0.29711492480425483,5.691053662761374,0.7536835557550978,12.087026767627451
12.85287458,0.49566368452582354,5.081714711937843,0.7554830650296076,12.449285652411765
12.86286658,0.669342473394451,4.856878252114314,0.7483733323315684,12.429446997627451
12.87285758,0.8409986473042549,4.730420381682941,0.879873669625686,12.38774686762745
12.88284958,0.9533306709120979,4.598321392663333,0.9336871201354899,12.340448972509805
12.89284158,1.041561698382686,4.44627497142804,0.9062213723935292,12.303846897509803
12.90283258,1.0711620811081763,4.204537811192746,0.8023858633150978,12.224649722588234
12.91282458,1.0018225360768038,3.850077397094706,0.7601324656362742,12.164988862764707
12.92281558,0.9901295264493528,3.446894450820196,0.8911886782441173,12.207192569823528
12.93280758,1.086873675684647,3.0747783919182354,1.0598650365441173,12.250584296686275
12.94279858,1.1697131446768039,2.7737999828201967,1.0984521540617644,12.144348497254901
12.95279058,1.188874811459157,2.522463196408432,1.03278781910098,12.00517584009804
12.96278158,1.2570022360375883,2.3527538041927456,0.9560910938009801,11.90270322598039
12.97277358,1.3406098360375882,2.239564343663334,0.8687524732594115,11.845764359313726
12.98276558,1.4069096325611177,2.155934782506471,0.801791420778039,11.792815353882352
12.99275658,1.5044271910745095,2.06895962815353,0.8067547422735292,11.737406444019607
13.00274858,1.6600177831352942,1.9253168883888239,0.8695328328401957,11.687618508254902
13.01273958,1.830744281280392,1.6619311402123533,0.9693309426852937,11.646660680588235
13.02273158,1.9903941401490195,1.3341449671143142,1.044233444130392,11.623531126666666
13.03272258,2.1639547737039213,1.0080477680947064,1.0542975914539212,11.604157022352942
13.04271458,2.356843067596078,0.7154803323496083,1.0219303263382349,11.589612827058824
13.05270658,2.5395443925568624,0.4736317482319612,0.9978272077049017,11.551353328137253
13.06269758,2.693465262027451,0.2693295919358828,1.0094022841519605,11.480384995313726
13.07268958,2.8195277317725487,0.07580733374647101,1.0531246901421565,11.392641568980391
13.08268058,2.928978442419608,-0.11794608436529369,1.108455432920588,11.298913948156862
13.09267258,3.0300100482039216,-0.30607441222999954,1.1527732989970585,11.192739325843139
13.10266358,3.12862260067451,-0.49049325502960744,1.1671459385147056,11.066375303960783
13.11265558,3.23254308067451,-0.6885594533021564,1.1466131197270586,10.936730416450981
13.12264658,3.338603283321569,-0.9053470258903917,1.0993946749623527,10.819714245843135
13.13263858,3.4424780088509803,-1.1359275152041173,1.0436884778839213,10.710781924686275
13.14263058,3.5482668032431373,-1.3715591160276466,0.9939152584721566,10.603691649333333
13.15262158,3.6532578826352937,-1.6089678805962742,0.9535116733172546,10.494294858313724
13.16261358,3.7477661311254904,-1.8452404623805878,0.9199313517290193,10.375874896235295
13.17260458,3.8279215002529408,-2.084018232106078,0.8906598261613723,10.252788549882352
13.18259658,3.894653393470588,-2.3278104593413724,0.8634270727652938,10.132506311352941
13.19258758,3.9573512754274507,-2.574621936498235,0.8315488799515682,10.018070857843137
13.20257958,4.02429905702549,-2.8250617600080385,0.7882124202907841,9.911566475156862
13.21257158,4.097782300225883,-3.0796327560472543,0.7377971207064703,9.81552855182353
13.22256258,4.183522631647451,-3.3366738796747053,0.6868842101790192,9.727354872392157
13.23255458,4.284794142392549,-3.592883254047255,0.6502063819809801,9.652969989058823
13.24254558,4.397574251902353,-3.831078755753137,0.715643900155882,9.605292481745098
13.25253758,4.522836040039608,-4.063106706106078,0.7960208149794115,9.58822283982353
13.26252858,4.659397325941568,-4.32606829608647,0.7953974989245095,9.620893605058823
13.27252058,4.830849555274901,-4.602764949753137,0.8195556258068625,9.674010297803921
13.28251171,5.035276446451373,-4.881197985713921,0.8227776422774506,9.775330436941175
13.29250371,5.216579663431764,-5.1563903686125485,0.6734590617872546,9.920488265039216
13.30249571,5.358495267627842,-5.498331469847843,0.49442545874803884,10.112143031980393
13.31248671,5.444145465941569,-5.774155776298824,0.2576409016499997,10.283413190274509
13.32247871,5.376542996765098,-5.780698420808628,0.04910486535588206,10.20709970262745
13.33246971,5.082581200608235,-5.336524520847843,0.0868593995499997,9.68342630492157
13.34246171,4.714005263863137,-4.542682343996862,0.1681838048049017,8.885535133627451
13.35245271,4.440441892176863,-3.672569384153725,0.15883638280490167,8.120869507901961
13.36244471,4.291021971490588,-3.107552671938039,0.16667540088333305,7.738788220843137
13.37243671,4.171347375608236,-2.941009489702745,0.23250301074411736,7.720954221509803
13.38242771,4.03233563056902,-2.8740098685262736,0.2699564333911762,7.695220783235294
13.39241971,3.90881272984353,-2.749056887938038,0.34920321972450946,7.726773700509804
13.40241071,3.7861046930788236,-2.565377694918431,0.4235812445676468,7.789086523156863
13.41240271,3.7141096063925487,-2.285489906055686,0.5331091470578428,7.894791616509804
13.42239371,3.7509608317572547,-1.8992201113694112,0.5831147631876468,7.980167428490197
13.43238571,3.7397132137141176,-1.4712864286243132,0.4678536428347056,7.961800148686274
13.44237671,3.624038018757255,-1.0834600707027444,0.33234174871705857,7.935779374372549
13.45236871,3.5251460066239217,-0.772237683761568,0.3361371047366664,8.053108324784313
13.46236071,3.481546314761177,-0.5041759114674503,0.4234883698719605,8.209919014294117
13.47235171,3.3763301978199998,-0.3149583733694111,0.49928439036019573,8.33437092762745
13.48234371,3.2508497467415682,-0.18474604009490142,0.5797821798994115,8.411200409392158
13.49233471,3.1431335753690197,-0.09144486325176412,0.6459569079917644,8.476592691686275
13.50232671,3.01023275254549,0.0025918932580397853,0.6533177729590193,8.54182632762745
13.51231771,2.827632339349411,0.14742748792470647,0.6193352446119605,8.595103893000001
13.52230971,2.631754808369019,0.4059256515913731,0.5506029787825487,8.633754988901961
13.53230171,2.447267386898431,0.7363979666501967,0.49714221713352913,8.662669829882352
13.54229271,2.249801525702353,1.0719930388070595,0.49976469192176437,8.694667760470589
13.55228471,2.032782632702353,1.3784226178854908,0.540396661008039,8.726357115764706
13.56227571,1.8255312210749022,1.6376083569050985,0.5712468688845095,8.78578145272549
13.57226771,1.6453887738396078,1.8584654253580397,0.5662409643786271,8.878304210254901
13.58225871,1.490503678447451,2.0656745936847063,0.5281979474864703,8.986246704235294
13.59225071,1.3490593541141178,2.26949921016902,0.4776130285060782,9.098422503627452
13.60224271,1.2126164399572548,2.46622377054353,0.4375108601727449,9.22355196990196
13.61223371,1.0756560873298038,2.658081188852942,0.42732640352568596,9.369686294470588
13.62222571,0.930817374055294,2.8614703253607847,0.45231812695450957,9.518902544529412
13.63221671,0.7817637698984313,3.080717477615687,0.5042419981309801,9.654352135666667
13.64220871,0.6338002644474509,3.311774881890196,0.5649242416603919,9.78103753819608
13.65219971,0.4829845559768627,3.5469191230274517,0.6189773248368624,9.906103671058824
