Time (s),Linear Acceleration x (m/s^2),Linear Acceleration y (m/s^2),Linear Acceleration z (m/s^2),Absolute acceleration (m/s^2)
0.01901583333,-0.17669540614060783,-0.6195309285764705,0.4023934574666667,3.671130389421569
0.02900783331,-0.17669540614060783,-0.6195309285764705,0.4023934574666667,3.671130389421569
0.03899883333,-0.17669540614060783,-0.6195309285764705,0.4023934574666667,3.671130389421569
0.04899083331,-0.17669540614060783,-0.6195309285764705,0.4023934574666667,3.671130389421569
0.05898283332,-0.17669540614060783,-0.6195309285764705,0.4023934574666667,3.671130389421569
0.06897383332,-0.17669540614060783,-0.6195309285764705,0.4023934574666667,3.671130389421569
0.07896583332,-0.17669540614060783,-0.6195309285764705,0.4023934574666667,3.671130389421569
0.08895783333,-0.17669540614060783,-0.6195309285764705,0.4023934574666667,3.671130389421569
0.09894883333,-0.17669540614060783,-0.6195309285764705,0.4023934574666667,3.671130389421569
0.1089408333,-0.17669540614060783,-0.6195309285764705,0.4023934574666667,3.671130389421569
0.1189328333,-0.17669540614060783,-0.6195309285764705,0.4023934574666667,3.671130389421569
0.1289238333,-0.17669540614060783,-0.6195309285764705,0.4023934574666667,3.671130389421569
0.1389158333,-0.17669540614060783,-0.6195309285764705,0.4023934574666667,3.671130389421569
0.1489078333,-0.17669540614060783,-0.6195309285764705,0.4023934574666667,3.671130389421569
0.1588988333,-0.17669540614060783,-0.6195309285764705,0.4023934574666667,3.671130389421569
0.1688908333,-0.17669540614060783,-0.6195309285764705,0.4023934574666667,3.671130389421569
0.1788828333,-0.17669540614060783,-0.6195309285764705,0.4023934574666667,3.671130389421569
0.1888738333,-0.17669540614060783,-0.6195309285764705,0.4023934574666667,3.671130389421569
0.1988658333,-0.17669540614060783,-0.6195309285764705,0.4023934574666667,3.671130389421569
0.2088578333,-0.17669540614060783,-0.6195309285764705,0.4023934574666667,3.671130389421569
0.2188488333,-0.17669540614060783,-0.6195309285764705,0.4023934574666667,3.671130389421569
0.2288408333,-0.17669540614060783,-0.6195309285764705,0.4023934574666667,3.671130389421569
0.2388328333,-0.17669540614060783,-0.6195309285764705,0.4023934574666667,3.671130389421569
0.2488238333,-0.17669540614060783,-0.6195309285764705,0.4023934574666667,3.671130389421569
0.2588158333,-0.17669540614060783,-0.6195309285764705,0.4023934574666667,3.671130389421569
0.2688078333,-0.17669540614060783,-0.6195309285764705,0.4023934574666667,3.671130389421569
0.2787988333,-0.17669540614060783,-0.6195309285764705,0.4023934574666667,3.671130389421569
0.2887908333,-0.17669540614060783,-0.6195309285764705,0.4023934574666667,3.671130389421569
0.2987818333,-0.17669540614060783,-0.6195309285764705,0.4023934574666667,3.671130389421569
0.3087738333,-0.17669540614060783,-0.6195309285764705,0.4023934574666667,3.671130389421569
0.3187658333,-0.17669540614060783,-0.6195309285764705,0.4023934574666667,3.671130389421569
0.3287568333,-0.17669540614060783,-0.6195309285764705,0.4023934574666667,3.671130389421569
0.3387488333,-0.17669540614060783,-0.6195309285764705,0.4023934574666667,3.671130389421569
0.3487408333,-0.17669540614060783,-0.6195309285764705,0.4023934574666667,3.671130389421569
0.3587318333,-0.17669540614060783,-0.6195309285764705,0.4023934574666667,3.671130389421569
0.3687238333,-0.17669540614060783,-0.6195309285764705,0.4023934574666667,3.671130389421569
0.3787158333,-0.17669540614060783,-0.6195309285764705,0.4023934574666667,3.671130389421569
0.3887068333,-0.17669540614060783,-0.6195309285764705,0.4023934574666667,3.671130389421569
0.3986988333,-0.17669540614060783,-0.6195309285764705,0.4023934574666667,3.671130389421569
0.4086908333,-0.17669540614060783,-0.6195309285764705,0.4023934574666667,3.671130389421569
0.4186818333,-0.17669540614060783,-0.6195309285764705,0.4023934574666667,3.671130389421569
0.4286738333,-0.17669540614060783,-0.6195309285764705,0.4023934574666667,3.671130389421569
0.4386658333,-0.17669540614060783,-0.6195309285764705,0.4023934574666667,3.671130389421569
0.4486568333,-0.17669540614060783,-0.6195309285764705,0.4023934574666667,3.671130389421569
0.4586488333,-0.17669540614060783,-0.6195309285764705,0.4023934574666667,3.671130389421569
0.4686408333,-0.17669540614060783,-0.6195309285764705,0.4023934574666667,3.671130389421569
0.4786318333,-0.17669540614060783,-0.6195309285764705,0.4023934574666667,3.671130389421569
0.4886238333,-0.17669540614060783,-0.6195309285764705,0.4023934574666667,3.671130389421569
0.4986158333,-0.17669540614060783,-0.6195309285764705,0.4023934574666667,3.671130389421569
0.5086068333,-0.17669540614060783,-0.6195309285764705,0.4023934574666667,3.671130389421569
0.5185988333,-0.17669540614060783,-0.6195309285764705,0.4023934574666667,3.671130389421569
0.5285908333,-0.13429659766413726,-0.6303820652627451,0.3335952786039216,3.749469853441177
0.5385818333,-0.11298491541315686,-0.6090140978389608,0.2707824358,3.811327784303922
0.5485738333,-0.12648437574060784,-0.5797663308801373,0.22314883872156865,3.8569814185588234
0.5585658333,-0.16581414982296078,-0.5480464413938627,0.18616134744705884,3.8950712828725487
0.5685568333,-0.23353683081511764,-0.5246171068801373,0.15954734411372548,3.929566682460784
0.5785488333,-0.31884838363864704,-0.5220108767468039,0.13468496023137255,3.9678895237549017
0.5885408333,-0.40956054520727453,-0.5337377428997451,0.10868779230980394,4.00708496377451
0.5985318333,-0.49202548424649023,-0.5468175744997451,0.08913356811372551,4.037736760990196
0.6085238333,-0.5518852022464902,-0.5550398316964117,0.08083090023137256,4.051485527558823
0.6185158333,-0.5805664356366863,-0.5588521073826863,0.09547629515294119,4.035300229127451
0.6285068333,-0.5723591160680588,-0.5593875518258236,0.12639278294705886,4.012956643382353
0.6384988333,-0.5270958770190393,-0.5562055887807255,0.16202339918235295,4.014393609343138
0.6484908333,-0.449365382621,-0.541671084584647,0.21311710332941178,4.044337407715687
0.6584818333,-0.3723278692680589,-0.5268191453630784,0.26744362981960784,4.076016991990196
0.6684738333,-0.31160853891707846,-0.5146218879140588,0.3196934316823529,4.098157791362745
0.6784658333,-0.2682709828896275,-0.4945359339885686,0.35006367487450984,4.1092575866764705
0.6884568333,-0.24939901662296077,-0.4710931279454314,0.35646282182352945,4.117901697558824
0.6984488333,-0.2396325771308039,-0.44715366973170595,0.34193988594313723,4.139079792352941
0.7084408333,-0.22402187568766663,-0.41995014668660785,0.3082716526117647,4.165298632254902
0.7184318333,-0.1982967526939412,-0.38828463057680396,0.2625740571607843,4.179995895117647
0.7284238333,-0.1565118516939412,-0.35209659125523524,0.208505427272549,4.171449199823529
0.7384158333,-0.09958520742139217,-0.3225856651964118,0.16020694444901962,4.146514943666666
0.7484068333,-0.030680377068450993,-0.3166097477454313,0.13970244452745098,4.131487764980392
0.7583988333,0.04380416742174509,-0.33237913229445093,0.1461688688607843,4.140214157784314
0.7683908333,0.11279952928645097,-0.35499704525523534,0.147009102272549,4.145206200627451
0.7783818333,0.16726546313350982,-0.3735843176866078,0.12137847450784313,4.125774895529411
0.7883738333,0.20683055038743134,-0.3824532597454314,0.07316781456666666,4.085013933470588
0.7983658333,0.23882875301292156,-0.3760354647709216,0.022376526135294107,4.042555713392157
0.8083568333,0.2726809443309608,-0.3546568118454314,-0.011217734178431384,4.0155191544117645
0.8183488333,0.3063948203368431,-0.326607529194451,-0.020963621001960787,4.008260367372549
0.8283408333,0.3308380333760588,-0.2903724025846471,-0.008504534413725484,4.0164595211960785
0.8383318333,0.34365548263096074,-0.23826743396503922,0.016846390056862764,4.021639179411765
0.8483238333,0.34558085609566663,-0.18077218094543135,0.045152290978431375,4.0160189355490195
0.8583158333,0.3406407456662549,-0.1347072857689608,0.07176161652745099,4.007641643156862
0.8683060833,0.3395077422976274,-0.1062793959062157,0.09098253795882354,4.002807114607843
0.8782980833,0.34774002001725485,-0.095121248867,0.0995460260372549,4.0021514798039215
0.8882900833,0.3633692419407843,-0.0949667763179804,0.10136584005686275,4.002925528254902
0.8982810833,0.38218780399568625,-0.09680711006307845,0.09159296433137255,3.9978650921176473
0.9082730833,0.3978768810564705,-0.08801075086700001,0.05807080820588236,3.980340204019608
0.9182650833,0.4093936157643137,-0.059203365225823534,0.01185517238235295,3.9659985321372546
0.9282560833,0.426570826407451,-0.009971976335627457,-0.03638134141960784,3.956300350980392
0.9382480833,0.4506295749917647,0.056332663146725484,-0.0830738463352941,3.940464563921569
0.9482400833,0.4819524514388235,0.12887896456241177,-0.12641441768823528,3.9207552129215686
0.9582310833,0.5162567702913725,0.1937199026408431,-0.17813709878627448,3.9120497724705885
0.9682230833,0.5486771877443136,0.24420297402515687,-0.2505510582137255,3.921759624490196
0.9782150833,0.5713988959482353,0.26947547415456863,-0.3443586956215686,3.958904415313725
0.9882060833,0.582439737532549,0.25155356613888236,-0.43771700318039214,4.024055522
0.9981980833,0.5813756102090196,0.19451518988594116,-0.507994069,4.062867088803921
1.008190083,0.5639497796835294,0.14286743054280393,-0.5643688636666667,4.0967460947450975
1.018181083,0.5411408146768627,0.14172566996437255,-0.5697564537647059,4.099145377431372
1.028173083,0.49663158259980394,0.19120879867613724,-0.5317898404901961,4.038531279254902
1.038165083,0.4395424675992157,0.21679480415652944,-0.4682945015098039,3.960590603843137
1.048156083,0.40879912116392153,0.212477925224902,-0.4110338880784314,3.901457774588235
1.058148083,0.40886729496784313,0.20346543402966666,-0.3740650734901961,3.8643361632156865
1.068140083,0.4268896188717647,0.19411383872339216,-0.3525539925882353,3.839140635352941
1.078131083,0.4649614361756863,0.19306335776849018,-0.34458058027450983,3.820029709647059
1.088123083,0.5141642553992157,0.20987637859790198,-0.3405138303333334,3.7989553856078433
1.098115083,0.5665628029639216,0.23483668041358827,-0.33796666854901963,3.7781971346274514
1.108106083,0.6144532418482354,0.2550683160018235,-0.34182618629411765,3.766129114901961
1.118098083,0.6405057326149021,0.2686145203749608,-0.3494208595294117,3.765896441921569
1.128090083,0.6391746125384314,0.27980865932201965,-0.36580408135294123,3.784470715490196
1.138081083,0.6082377282894118,0.282766261255353,-0.3838555596568628,3.7978785133137256
1.148073083,0.5514047670070589,0.27717548612790194,-0.39478024514901966,3.781283172431372
1.158065083,0.47489613287568627,0.26230369504358825,-0.41276793147372554,3.7347829213921564
1.168056083,0.40261339614627456,0.25469071771025487,-0.42397704387960783,3.6966724011176466
1.178048083,0.3487596027168627,0.25928348776907845,-0.4238958937031373,3.6825266044509806
1.188040083,0.32500009075960784,0.2638950377102549,-0.39586795337372555,3.6954828632941177
1.198031083,0.3371353344086274,0.26691652333770594,-0.3362130197756863,3.7306840629215685
1.208023083,0.36110433109882356,0.2636416812984902,-0.2526137380894118,3.7635879138235295
1.218015083,0.37331292899882357,0.25489006190633334,-0.1542644192266667,3.792457134294118
1.228006083,0.3723923827061569,0.23759188841613724,-0.0576830002854902,3.82008143054902
1.237998083,0.3512498956669412,0.2079583256122157,0.026238440073333327,3.8495822364117642
1.247990083,0.3093282042179216,0.17722682195339218,0.08832701923019609,3.8811215403137256
1.257981083,0.25783722190811764,0.16523351195339217,0.11236563362235295,3.8925177775490196
1.267973083,0.19546481489439219,0.16929134775731375,0.09799590624980392,3.8697639846078427
1.277965083,0.1323724121394902,0.1790452888357451,0.07560612642627451,3.8393926729215684
1.287956083,0.07444528204537255,0.18572558940437256,0.05808806323019608,3.81454928927451
1.297948083,0.0204707636767451,0.19020285403182355,0.05251987442627451,3.803337259
1.307940083,-0.022145807731098036,0.2014392591886863,0.0640966620537255,3.8114399203333336
1.317931083,-0.04824601420364705,0.22215247603574512,0.08795846123019607,3.834597028019608
1.327923083,-0.06230389293698039,0.242560387973,0.1051535402890196,3.8514698492352943
1.337915083,-0.07297341051933333,0.2521988579984902,0.1075164001517647,3.8518067418823527
1.347906083,-0.0896691430742353,0.2594895046945686,0.10049281644588234,3.8416127902745094
1.357898083,-0.1187065199095294,0.2636890552357451,0.08250968175960784,3.8212113257843137
1.367890083,-0.1603501017350196,0.27042001733378435,0.06333216730862745,3.8043651133137257
1.377881083,-0.1975033307703137,0.2907747368141765,0.041175565269411754,3.782352282
1.387873083,-0.21769434684090197,0.3132303752161373,0.011806560308627439,3.7480277149215686
1.397865083,-0.21171362692913726,0.32006490754947053,-0.010269212577647072,3.731111605019608
1.407857083,-0.20726926508011764,0.3282581780396666,-0.022140390307058836,3.7211774009215683
1.417848083,-0.2190074170405098,0.3385227616063333,-0.02291802412666668,3.7080213895490193
1.427840083,-0.24392195866207844,0.3399616696573138,-0.009517673391372565,3.6949000552352937
1.437832083,-0.2644600220287451,0.3196144369043726,0.02395535465568626,3.6783736947843138
1.447823083,-0.27107279872090195,0.2821145059514314,0.07370110360666665,3.6654084539019607
1.457815083,-0.2714759484758039,0.2333014050847647,0.12602740080862743,3.6572055835294117
1.467807083,-0.2792374710558039,0.17509596757496076,0.1816436281615686,3.652222645313725
1.477798083,-0.2844992657695294,0.11193918238672548,0.2410453658478431,3.6484110365686275
1.487790083,-0.28262422278913724,0.050130762257313735,0.3038634367498039,3.639967100039216
1.497782083,-0.27994841795580394,-0.003324170807392152,0.36454394904392157,3.624396760901961
1.507773083,-0.27990969018521566,-0.045616150083862744,0.4221692797105882,3.600931791098039
1.517765083,-0.3052529230107059,-0.0737342378387647,0.4731770871027451,3.5782377393137255
1.527757083,-0.34718778788639215,-0.09897650155837254,0.5071110706517646,3.5711719166274505
1.537748083,-0.3906131638289411,-0.12566559001523528,0.5248877756909803,3.5762499888039216
1.547740083,-0.4295356164754118,-0.14859114104464707,0.5259993543184314,3.5912423110392155
1.557732083,-0.4495988701577647,-0.1720314247524902,0.5173108504752941,3.607705471
1.567723083,-0.45833915053227453,-0.19536828153568628,0.509944757494902,3.6192483872745096
1.577715083,-0.4576468036538432,-0.21697992306862746,0.49786911065176465,3.6330984082745097
1.587707083,-0.45272774821462747,-0.234500841072549,0.48502937031843135,3.6461534880980393
1.597698083,-0.4437376426832549,-0.2512356295960784,0.468241096985098,3.662124852431372
1.607690083,-0.43412185641462747,-0.27233254991372546,0.4512167107694118,3.678515199117647
1.617682083,-0.42771880773894116,-0.29786574701568624,0.44094533123999996,3.6886184375294113
1.627673083,-0.4204801790487451,-0.3263654773843137,0.43081218676941174,3.6977240039411767
1.637665083,-0.41555962884286274,-0.35877959760980394,0.41766018220078427,3.707985513980392
1.647657083,-0.41060216880560785,-0.385932158154902,0.397785358612549,3.7223700405686273
1.657649083,-0.4048330880056079,-0.40640568502745106,0.37026402792823526,3.73801770572549
1.667640083,-0.4012070805330588,-0.4318088446392157,0.34530876502745095,3.7421755432549024
1.677632083,-0.390837239913451,-0.46422409990392155,0.32973730872039214,3.7222929307098043
1.687624083,-0.370122781958549,-0.5043027847960784,0.36745882048509804,3.748350834631372
1.697615083,-0.36297134879541176,-0.5377846123313725,0.3646579583282353,3.7358181775921566
1.707607083,-0.37304057230717647,-0.5533998596980392,0.3154625470203921,3.688807449605882
1.717599083,-0.38368223894639214,-0.5657369630607844,0.257356059312549,3.6367786032137257
1.727590083,-0.3781318898718824,-0.5670820691588235,0.17845863836549017,3.593679461978431
1.737582083,-0.35819893665137253,-0.5529715339431373,0.09708128715372547,3.5623171683509804
1.747574083,-0.3262006652454902,-0.5282215025901961,0.017555233196862724,3.5305126159980396
1.757565083,-0.28653597467490194,-0.5013293495196078,-0.05447603170509808,3.491754914429412
1.767557083,-0.24942022872784314,-0.4833868300686275,-0.10145812284235298,3.4619489454294112
1.777549083,-0.2149804352239216,-0.4783717649117647,-0.11974905035215691,3.4490407681156863
1.787540083,-0.18575309911607843,-0.4831506885392157,-0.12810562727372554,3.441397030292157
1.797532083,-0.16211328490235294,-0.4865162082843137,-0.13576482627372552,3.434012118860784
1.807524083,-0.13595787239843138,-0.49088899118627455,-0.14970087368549023,3.4197269828411763
1.817515083,-0.1109300624709804,-0.5047880291666667,-0.17304898923450987,3.395090609978431
1.827507083,-0.09668376007686276,-0.5252060533431373,-0.20082989043058827,3.365173057429412
1.837499083,-0.09382865926117648,-0.542201856982353,-0.21113175574431375,3.352835795919608
1.847490083,-0.09209239306313725,-0.5486053492162746,-0.19344133729333335,3.3703814622333335
1.857482083,-0.0814700817101961,-0.5515417693241177,-0.16106792974431378,3.4038838959588236
1.867474125,-0.05980082718078432,-0.5527764261064705,-0.11509948209725496,3.4497657320960786
1.877466125,-0.019673518663137265,-0.5570600504398039,-0.06854794094039222,3.4916070840372546
1.887457125,0.030614100944705867,-0.5629948367456862,-0.036587942999215736,3.520748067135294
1.897449125,0.07923262853882351,-0.5608935079535293,-0.00925533980313731,3.555076749292157
1.907441125,0.11439461335843135,-0.543031152675098,0.00731061323999995,3.5806084501156863
1.917432125,0.15775639519176468,-0.5293188300515687,0.011175359087058773,3.6141595463117646
1.927424125,0.21581466754627449,-0.5208317513103922,0.007348608675294065,3.6614561004490196
1.937416125,0.2758986964933334,-0.5124736323378432,-0.0008268191972549568,3.695456419311765
1.947407125,0.31579737814823533,-0.493308030147647,-0.018723575577647113,3.7109839423313726
1.957399125,0.33487046391686276,-0.4602673463633333,-0.04760058894039221,3.711043834723529
1.967391125,0.3464645796462745,-0.41890634987313724,-0.07511208253450986,3.700497767762745
1.977382125,0.3657897420305882,-0.37415138291235295,-0.1083651062403922,3.6890734180568625
1.987374125,0.3829065794560784,-0.32554488367705886,-0.1569804966913726,3.6862845120568624
1.997366125,0.38734330409529416,-0.2776225373241176,-0.21767715190705886,3.6955333538999997
2.007357125,0.38366628539921566,-0.2356411971280392,-0.2871597186913726,3.7222078418215685
2.017349125,0.3768781481305882,-0.18777137253196077,-0.36521508326,3.766192440409804
2.027341125,0.4021613072639216,-0.13628112972607842,-0.4403331621031373,3.8128856976058825
2.037332125,0.46675498263647064,-0.09671185770254902,-0.5060797479070588,3.853158596370588
2.047324125,0.5374130834011764,-0.07081392618686275,-0.5593300771619608,3.8869365569196077
2.057316125,0.5948535904501961,-0.05639367772019607,-0.5937283181619608,3.9074871357823526
2.067307125,0.6227388794823528,-0.049194075622156865,-0.6164757756129413,3.9240303953901963
2.077299125,0.631063660009804,-0.04844934672019608,-0.6372666744560784,3.9427445308607845
2.087291125,0.6275193193647058,-0.04990763658294117,-0.6528129189462746,3.9585979327235292
2.097283125,0.6213984533019608,-0.054959562116274514,-0.6711812016913726,3.9779612439784313
2.107274125,0.617151078845098,-0.06441565633980392,-0.6900547067894118,3.9979112272725494
2.117266125,0.6161242303868627,-0.07319529650254902,-0.7062324047109805,4.0150482619000005
2.127258125,0.6224975987111764,-0.07468322944372549,-0.7278614617698039,4.0368178465078435
2.137249125,0.6357550767484313,-0.07266414575156861,-0.7578818351031373,4.066495719841176
2.147241125,0.6474423136856862,-0.06751280035549019,-0.804201666024706,4.111416109076471
2.157233125,0.6509751096621569,-0.06354794673588234,-0.8680278312796079,4.173870530939215
2.167224125,0.6563113438739215,-0.06442353288490195,-0.9491752263972549,4.25320012562549
2.177216125,0.6680916138811765,-0.06109937932215685,-1.055188548122745,4.354807669684313
2.187208125,0.6712025869909803,-0.05229076104725489,-1.187042412664706,4.475638913856862
2.197199125,0.6580478472556862,-0.03855347310490195,-1.3793050659588233,4.535570024229412
2.207191125,0.6452656203007843,-0.037843345961176465,-1.534373202135294,4.614682954994118
2.217183125,0.6342122029105882,-0.06303827017098039,-1.6482179864156863,4.706917452078431
2.227174125,0.6186846057380392,-0.0914141427552941,-1.7549005391784316,4.788686775450981
2.237166125,0.5825109709203922,-0.12223231132784314,-1.8339519253294116,4.845584100862745
2.247158125,0.5316149700184314,-0.15818638750235295,-1.9013935730784315,4.8815464063921565
2.257150125,0.48945144604392155,-0.19880595131411763,-1.9692504533960784,4.905905243215686
2.267141125,0.46145041581254903,-0.24492110673862746,-2.043787353396078,4.919379895862745
2.277133125,0.44268012839882354,-0.29643583334058826,-2.140349453592157,4.919515698333334
2.287125125,0.43367536469882356,-0.34874144745235297,-2.2633256855333332,4.909954317294118
2.297116125,0.43428837932627445,-0.39922482839352935,-2.4080865792392157,4.898530730607843
2.307108125,0.44467254132431366,-0.4560168820798039,-2.572682248847059,4.902698645745097
2.317100125,0.4554917246988236,-0.523132174942549,-2.759364640552941,4.9355146454705885
2.327091125,0.45820413768901963,-0.5963900194523529,-2.9660340306509805,4.985293834215686
2.337083125,0.4517608944243137,-0.674291860197451,-3.188019869670588,5.0296096771372545
2.347075125,0.44323500049098036,-0.7548104216758823,-3.409345214082353,5.0453021635686275
2.357066125,0.4385915044047059,-0.8421225190772549,-3.5909663820235296,5.020073852627451
2.367058125,0.45828499407725487,-0.9451752808733334,-3.695196509356863,5.009927912039216
2.377050125,0.5157883558145099,-1.0773238622792158,-3.723917069572549,5.076808164509805
2.387042125,0.6002802493752941,-1.2323536246517648,-3.695572141376471,5.21330632827451
2.397033125,0.6887322757870589,-1.4014963184537257,-3.6314119166509804,5.393150641980392
2.407025125,0.7599085659831373,-1.5745692870596077,-3.5793441924941174,5.5673987586274505
2.417017125,0.8033246638654903,-1.7463147485341175,-3.5735275199450984,5.714914454490196
2.427008125,0.8275123765125492,-1.9243465228831376,-3.6007989910725486,5.858238047411764
2.437000125,0.8564465206105882,-2.119755350877255,-3.6302723860294117,6.018925996313725
2.446992125,0.9055312303556863,-2.3279899946988234,-3.638426867127451,6.201661257803922
2.456983125,0.9736637237870588,-2.5291327169086277,-3.6104064135431377,6.390107016156863
2.466975125,1.0537007068654902,-2.719910486947843,-3.5441860657,6.573152614215687
2.476967125,1.157154349757647,-2.898233584575294,-3.4385044759941175,6.759646026235294
2.486958125,1.2947157359635293,-3.0577994792811762,-3.2828995768764706,6.955575958529412
2.496950125,1.4722776299360785,-3.1890139163988236,-3.0591614763666666,7.165334467980392
2.506942125,1.6824273136027452,-3.276072720438039,-2.7725659795039217,7.387710795294118
2.516934125,1.903549968822353,-3.309577151477255,-2.441779474072549,7.606732391039215
2.526925125,2.124071974538039,-3.3026830721184317,-2.0990447679941173,7.811652486058824
2.536917125,2.3057486573458825,-3.2746307225321574,-1.788257081347059,7.97711838890196
2.546909125,2.4078756673262744,-3.2189108790850978,-1.527362619680392,8.070340015666666
2.556900125,2.4540464429537256,-3.1358458036007844,-1.3161697203666667,8.100118044784313
2.566892125,2.465438332434118,-3.0504859596752945,-1.145982473072549,8.086640604862744
2.576884125,2.464058921951961,-2.9729775677341177,-0.9943007833666666,8.048562520215688
2.586875125,2.4660233176970587,-2.8922413407929413,-0.8306901173470587,8.01131865662745
2.596867125,2.4704974337049017,-2.808977941498824,-0.6271121043078431,7.996769157843136
2.606859125,2.489785530759804,-2.735879611338039,-0.3688386971901961,8.015641742294118
2.616850125,2.5234190835009804,-2.6768875341576472,-0.08425753181764704,8.050641715470588
2.626842125,2.5471244983219608,-2.644464402341961,0.19367184104509805,8.081789681
2.636834125,2.541001954768628,-2.6541127954399997,0.4354813233,8.089244729568627
2.646826125,2.504750143529412,-2.695895238600784,0.6221709036333333,8.069897270568628
2.656817125,2.44081404702549,-2.748050688175294,0.7816662992607842,8.052850224470587
2.666809125,2.3807098724196076,-2.8082895981125486,0.9372737550843138,8.036658133568627
2.676801125,2.349063308886275,-2.870561218041961,1.0994531373392158,8.002490904058824
2.686792125,2.3461545218888236,-2.922808170810588,1.283670916162745,7.951446285352941
2.696784125,2.35797136135549,-2.980211484977647,1.4730553291431374,7.901776036392157
2.706776125,2.3726549100829413,-3.048381644204314,1.6488783177901962,7.858146008960785
2.716767125,2.3922372052064707,-3.1157526553029413,1.795651525045098,7.816960346745098
2.726759125,2.4196957069711766,-3.170889382314706,1.9037595831182352,7.7753882548039215
2.736751125,2.4684733906143137,-3.210518639897059,1.970926858882941,7.74657657545098
2.746742125,2.5535021216339215,-3.24934892705,2.001118876647647,7.752246943745098
2.756734125,2.6620303938888235,-3.293613375659804,2.01462298680451,7.7773527777647065
2.766726125,2.7715750612613728,-3.330234074553922,2.0341230153339214,7.807338795196078
2.776718125,2.880172386549608,-3.3534140711882356,2.062910210882941,7.8483085391568626
2.786709125,2.9860802921692153,-3.3623976702588236,2.0869798384319607,7.9021259940588235
2.796701125,3.0885807500456863,-3.337463468807843,2.090809650039804,7.965312382823529
2.806693125,3.1745345593005885,-3.3033171854647057,2.089277920294706,8.019330391196078
2.816684125,3.251003373614314,-3.26063016372549,2.091542673039804,8.060004970411764
2.826676125,3.3553367587711764,-3.1831397605882352,2.103125949922157,8.108279643921568
2.836668125,3.4891657124378432,-3.082275141529412,2.147452338902549,8.15286708037255
2.846659125,3.6271316686437256,-2.9481238486470587,2.2309603696476468,8.18542559209804
2.856651125,3.7952380409260784,-2.8257875658039215,2.3817396419417647,8.245953806568627
2.866643875,3.9850042770633336,-2.699658331745098,2.5518894326672545,8.380178666039216
2.876634875,4.140337435416274,-2.5451479970196083,2.6820820459221566,8.512005066
2.886626875,4.234458907808432,-2.358661590235294,2.7419060099221566,8.550372549666667
2.896618875,4.281987885592745,-2.138984839627451,2.726530079922157,8.498089335117648
2.906610875,4.277241746494706,-1.9061174010784314,2.6695060264907844,8.38245669609804
2.916601875,4.276141231710392,-1.7004959925294116,2.62886119353,8.272005661235294
2.926593875,4.257896772377059,-1.5163488732843138,2.656066797490784,8.164065382411765
2.936585875,4.219473548886863,-1.2884484151470588,2.7036072404025493,8.031358956509806
2.946576875,4.194538693926079,-1.0591529603235295,2.774535445265294,7.88870236845098
2.956568875,4.167374180984901,-0.7955199839117647,2.8234186367613723,7.740638586
2.966560875,4.095627537886863,-0.5310848841666667,2.857532519647647,7.569568742745098
2.976551875,3.9871097963545097,-0.2489137805980392,2.854220049059412,7.413398905411764
2.986543875,3.882282232627059,0.06381907979411762,2.732600600451568,7.304561403980393
2.996535875,3.7545649865290196,0.38183303061764706,2.5015042261966665,7.234184266999999
3.006527875,3.5703593492664707,0.6774295935980392,2.196275888824118,7.153128747196079
3.016518875,3.338273454148824,0.8958153248529411,1.8611773024515685,7.0120088879019615
3.026510875,3.0933998818939217,1.0316434157745098,1.5537771373143137,6.804158991980392
3.036502875,2.826390791972353,1.1012295757215687,1.2946605057064704,6.589961465058824
3.046493875,2.505365857560588,1.1141693665058823,1.0872567396417645,6.474939655686275
3.056485875,2.150307628619412,1.0690575359627452,0.9474234206574509,6.502859230196078
3.066477875,1.8723501433252943,1.0224606788843138,0.8983766776770589,6.569965713803921
3.076468875,1.6509271618939216,0.9903115235313725,0.8847393427162745,6.675808373117647
3.086460875,1.4663993545203922,0.9747795817862744,0.8709327624025489,6.795184103196077
3.096452875,1.3022947134380392,0.9773855596882354,0.8395483798535293,6.9015686292549026
3.106444875,1.1531590476066669,0.9894735659235295,0.7776616901672548,6.972927608509805
3.116435875,0.995647956204706,1.003667618864706,0.6889591650300001,7.000685325470588
3.126427875,0.8214625433811765,1.0262131295313726,0.6016685303633333,7.011893184156864
3.136419875,0.6545278728517647,1.0767359677058823,0.5226628098143137,7.029806469980392
3.146410875,0.5217132419913726,1.165403833764706,0.4597917814809804,7.063342087901961
3.156402875,0.4370689252854903,1.280220849509804,0.4261633092260784,7.102054173058823
3.166394875,0.4154938345796079,1.392491391352941,0.3785756815890196,7.10199490272549
3.176385875,0.4281031373050981,1.512406984235294,0.31832773713803914,7.08021549954902
3.186377875,0.44317761467764705,1.62949310372549,0.27966024908372544,7.046394344960784
3.196369875,0.44769742065568635,1.7192106367058824,0.2487526353190196,7.007893441823529
3.206361875,0.44524239264196086,1.7718046819235291,0.20980330572294112,6.945939118686274
3.216352875,0.4528433946400001,1.8025739201980393,0.13819575186019603,6.908658726705883
3.226344875,0.5056774479909805,1.8302586146294118,0.020424080722941145,6.950887686529413
3.236336875,0.6337682623831373,1.8702182312960784,-0.11209065676196081,7.08483406345098
3.246327875,0.7943900266576471,1.9493020637666667,-0.1940374923894118,7.246504234
3.256319875,0.9236586537164706,2.039684562747059,-0.2323303860364706,7.372251803
3.266311875,0.9780629252458823,2.1172513809627453,-0.2637599841933334,7.431490931431373
3.276302875,0.9781924238733334,2.1749987063156864,-0.30040050629137255,7.452493137803921
3.286294875,0.9455698102850981,2.1960725172409803,-0.3621826798796079,7.462771774568628
3.296286875,0.89355472254,2.1750533104233334,-0.410005067487451,7.455801589627451
3.306278875,0.8190706653243137,2.1008454252213724,-0.39703751389921577,7.418124214235294
3.316269875,0.7236081741694118,2.0248747764860786,-0.3060101071345098,7.357643086803921
3.326261875,0.6724346612674511,2.0008545442841177,-0.1595009016639216,7.307387866843137
3.336253875,0.6946513291105884,1.9771920291213723,0.10083783374784308,7.364883074372549
3.346244875,0.7339461660909804,1.7667603455723528,0.18539982510078423,7.436144950803921
3.356236875,0.7422551283066667,1.5827217667096078,0.23322292929098035,7.456034485470589
3.366228875,0.6919987798556863,1.398832257435098,0.1625241932321568,7.451295161745099
3.376219875,0.5996135751301961,1.2481109872390195,0.002512603114509746,7.377329337078431
3.386211875,0.4838400810321568,1.139107181572353,-0.18960866794431377,7.2344245219019605
3.396203875,0.3387363340909804,1.1091250709605882,-0.3758160937482353,7.04884991072549
3.406195875,0.13366310775764706,1.2232156676076469,-0.4430761797090197,7.02923345945098
3.416186875,-0.10583766445803922,1.2701354400390197,-0.40318586688549024,7.08710743454902
3.426178875,-0.3398264843207843,1.1796829922939216,-0.29944432600313725,7.180084229411765
3.436170875,-0.5524046692815687,0.9719720297154901,-0.06191091263058828,7.472091175686274
3.446161875,-0.6903361412423529,0.6276106513429411,0.3201502855458823,7.922710727470588
3.456153875,-0.7555933036168628,0.3033695992645098,0.5339365740752942,8.22871964847059
3.466145875,-0.7471320959305884,0.020869675793921516,0.4825413900694117,8.387465190529412
3.476136875,-0.6513909906756864,-0.12912322624529415,0.32063780148117643,8.529153817509805
3.486128875,-0.5471272246531372,-0.25018004083352946,0.1723982271870588,8.619776002941178
3.496120875,-0.5598441390688236,-0.441664951382549,0.1423773207360784,8.608459858411765
3.506112875,-0.671279010637451,-0.6683218042060785,0.2049874657752941,8.566445478313726
3.516103875,-0.7968361806298039,-0.8987217406766667,0.3032608166772549,8.526123665568628
3.526095875,-0.9015716335121569,-1.0992904096570588,0.404907968030196,8.520742354588235
3.536087875,-0.9669291501788235,-1.2599721021668626,0.4830720363380392,8.541869697490196
3.546078875,-0.9709827954925491,-1.3873639736374508,0.5355757893772549,8.540640924372548
3.556070875,-0.875996863865098,-1.4734635878139215,0.58423352054,8.461287686941176
3.566062875,-0.6856469952768627,-1.5006816429080392,0.6429563277007844,8.311736215313726
3.576053875,-0.5166821486101961,-1.5268479616139214,0.6786596099164706,8.194888500901962
3.586045875,-0.358003116002353,-1.5655084215590196,0.7248554110733334,8.09465483764706
3.596037875,-0.21086430872784317,-1.5996369110178432,0.7889187325243137,8.004713189352941
3.606029875,-0.07162706178666671,-1.6137161234884314,0.8468335605439214,7.9170399087254895
3.616020875,0.058810733252548986,-1.5934729310374507,0.8672009260537255,7.847431652215687
3.626012875,0.1838703395662745,-1.5374842016452943,0.8285088123184313,7.802385274529412
3.636004875,0.2995032826447059,-1.4588414384100001,0.7411659769145098,7.774084622862745
3.645995875,0.4020399760760784,-1.391104695429608,0.6282367175615686,7.742901704333335
3.655987875,0.5292811670937255,-1.3740885985080393,0.5519758849890196,7.66559622137255
3.665979875,0.6851607018780392,-1.3222985827041178,0.5143355563654902,7.6527424660588235
3.675970875,0.80446770278,-1.2751127160962745,0.5030290749201961,7.662776403705882
3.685962875,0.8518073683466667,-1.317953407827647,0.49277704852803916,7.617903208588236
3.695954875,0.8985569237388235,-1.3767258360707844,0.49325821705098033,7.588666966333334
3.705946875,0.9726410543313725,-1.3878680609139213,0.5168338953254902,7.639006905137255
3.715937875,1.0425273656235294,-1.328577170955098,0.5470921299411764,7.723961176666666
3.725929875,1.098791086127451,-1.2329585276217647,0.5936844568627451,7.7759064230588235
3.735921875,1.125698768735294,-1.1735995634511764,0.6727372861901961,7.753711500431372
3.745912875,1.0900950611666667,-1.1436976220335293,0.7763080768960784,7.669729462058823
3.755904875,1.0191347883431372,-1.1106019801707843,0.8812422304882352,7.580322937960784
3.765896875,0.9466152694607844,-1.039352786092353,0.9709752915647057,7.529390973647059
3.775888875,0.9324649617156863,-0.9504211131511764,1.0390264370156863,7.53813660517647
3.785879875,0.9748146019901961,-0.8427394030727451,1.0762666885254901,7.605299841764706
3.795871875,1.0540893746960784,-0.7262196537627451,1.1400899760549017,7.676368273843138
3.805863875,1.1780268200686275,-0.6344215524490197,1.2243311844823528,7.755776918568628
3.815854875,1.3225350108921567,-0.5369364291352942,1.2781794545980392,7.852651435313725
3.825846875,1.439738412929412,-0.42681724990000003,1.2838464785392154,7.9249724099411765
3.835838875,1.4520708671843139,-0.3601318112215686,1.2640274729313725,7.941119192431372
3.845830875,1.3103065568333334,-0.28984293347058826,1.133370143617647,7.810244258509805
3.855821875,1.0898722707745099,-0.037819087784313775,1.119029120627451,7.65284126964706
3.865813708,0.8631439615392157,0.16875654049019603,1.0506512992607844,7.592062062823529
3.875805708,0.6830431155196078,0.35281720119607834,0.9802492348882353,7.530313819666667
3.885796708,0.6974740781470589,0.36680298433333325,0.9687411692411765,7.535273810764705
3.895788708,1.0119571017352942,0.22769864121568614,0.9125458668882351,7.8791292682941165
3.905780708,1.3152177134607843,0.10220276021960774,0.9082613826725489,8.184384508098038
3.915771708,1.5542371336960783,-0.15362761140784326,0.9809097695941177,8.252894754509805
3.925763708,1.7845592678137256,-0.3862385578392158,1.0245781060450978,8.289291855490195
3.935755708,1.945110166127451,-0.47907311538823544,0.9165745525941177,8.245321929803922
3.945747708,2.1131311919901963,-0.5120447391137256,0.5786747946725489,8.097590563529412
3.955738708,2.229743692754902,-0.4753047112705883,0.09559050069215677,7.8516077452941175
3.965730708,2.2008125296,-0.3164145941529413,-0.1921578434843138,7.611848117117647
3.975722708,2.172204912364706,-0.1324153407019609,-0.14361427632745105,7.436837731882353
3.985713708,2.1837836376,-0.06719879927058835,0.027314764790196,7.378081349999999
3.995705708,2.144048402090196,-0.14807452244705893,0.21019288918235288,7.36176384427451
4.005697708,2.0739258747431375,-0.2312392127019609,0.34510890043725484,7.419461858921568
4.015688708,2.092121228958823,-0.25992764189803935,0.4406991762019607,7.417122647235294
4.025680708,2.1740906394294117,-0.23089039764313737,0.5101908405745097,7.330355305254902
4.035672708,2.286071446017647,-0.16845271678039228,0.5554082162372548,7.206693808411765
4.045664708,2.3868061422356863,-0.0955330305176472,0.6107952012039215,7.136092416352941
4.055655708,2.480734358412157,-0.03977771395294131,0.6482284223019608,7.112781927294117
4.065647708,2.5273929036219602,0.011836833792156727,0.649423237772549,7.087020926784314
4.075639708,2.478549781327843,0.09892872044901947,0.6159298247333332,7.126736096627451
4.085630708,2.370249716739608,0.13295136384117634,0.5780007253411764,7.186752308921568
4.095622708,2.2640615976415686,0.1211101272941175,0.534305388517647,7.235466699588235
4.105614708,2.1721550161709806,0.12391003784705869,0.5074061098705882,7.279945912549019
4.115606708,2.072930460857255,0.1211137330823528,0.5022266691647058,7.340884956509805
4.125597708,1.9789908368768627,0.09145535972941163,0.5229360452039215,7.386396490686274
4.135589708,1.8495192426415685,0.028403595101960652,0.584390039507843,7.440000921117647
4.145581708,1.675195801210196,-0.06470061080000014,0.6794800859705882,7.518886565705883
4.155572708,1.480463043327843,-0.15096835534901976,0.7859478395392155,7.625601763372549
4.165564708,1.2412112249180391,-0.17609552064313738,0.872153306935294,7.804345711647058
4.175556708,1.007239958172941,-0.2516181637411766,0.9396756648921568,7.889491049392157
4.185547708,0.8256956983298039,-0.324715616819608,1.0021897737196077,7.937108172882354
4.195539708,0.6983331259984314,-0.3086461898529413,1.0691760896215685,8.043619093529411
4.205531708,0.5648212204101961,-0.2733934642568629,1.0975108081333331,8.135867443862745
4.215523708,0.40004831137098035,-0.25226413774705897,1.066740927817647,8.146461270431374
4.225514708,0.27269564490039205,-0.2261575466294119,1.0143319441117646,8.134919269666668
4.235506708,0.20608513871803916,-0.19806244357058836,0.9497060703470587,8.133913011078432
4.245498708,0.19812689475725484,-0.15748234274117662,0.853194842372549,8.186143603313726
4.255489708,0.32356052797294116,-0.12911384796274525,0.7042980410392157,8.36886899227451
4.265481708,0.6190463607964705,-0.19047329651450998,0.5016309339372548,8.700586030686274
4.275473708,0.9476683761690193,-0.3186797367203923,0.3852841618999999,8.996141075196078
4.285465708,1.0730334134435293,-0.45325723431254916,0.3580183832137254,9.070072317313725
4.295456708,0.9735956755219607,-0.5929436735243139,0.3405499869588235,8.951142498313727
4.305448708,0.7829622170317646,-0.7091294364686276,0.27002849605686263,8.877822392843136
4.315440708,0.5266371365807843,-0.8057797035078433,0.1654966066294117,8.828205565862746
4.325431708,0.282421972227843,-0.9088817539000001,0.10318481288627446,8.749775458254902
4.335423708,0.12226278003176459,-1.0762214874294118,0.10109690976862737,8.73683408672549
4.345415708,0.02324795630627439,-1.3263038740960784,0.1575748447294117,8.855969891764707
4.355407708,0.008795049425882235,-1.6115394804294119,0.24029432684705876,8.994326332941176
4.365398708,0.09570898009254891,-1.86289555117451,0.26278660349215677,9.07146869172549
4.375390708,0.25024982352392144,-2.0488668239980394,0.27833086451176464,9.072731941705882
4.385382708,0.36069651564156846,-2.1466713658019607,0.2951620289039215,9.059509622568626
4.395373708,0.2320210140788234,-2.1208777210960785,0.28746040319803917,8.986601804137257
4.405365708,-0.20532359013686283,-2.015305302390196,0.39729144083137247,8.643798062019608
4.415357708,-0.5879329131956864,-1.9981060959,0.5120213215960784,8.436028875509804
4.425349708,-0.8393917688035295,-1.9843453675078433,0.5378262766352941,8.381348585862744
4.435340708,-1.0256419824701961,-1.8973473343901963,0.5543685312431372,8.350799793509804
4.445332708,-1.173267599117255,-1.7535411361960787,0.6729832791647058,8.38557943017647
4.455324708,-1.3341097690192159,-1.5314886503098042,0.852830436262745,8.339919390686275
4.465315708,-1.4640953908427452,-1.272735438982353,1.023095870007843,8.21438214709804
4.475307708,-1.4534429448427453,-1.1541895850313726,1.1220399882823529,8.134350648862744
4.485299708,-1.405453240862353,-1.1789385214823531,1.1236138351647058,8.186614601431373
4.495291708,-1.3824277655094117,-1.253801203109804,1.080466772252941,8.233247720176472
4.505282708,-1.3152091947643139,-1.1643713760509804,1.0318569595941176,8.216308130568628
4.515274708,-1.1972493923329413,-0.9676449812666666,1.0040102113039215,8.104295239529412
4.525266708,-1.1407635120388238,-0.7916914850705883,0.9701916586666667,8.016263636235294
4.535257708,-1.1395509600192157,-0.657511810247059,0.9325014352549019,8.022535129078431
4.545249708,-1.185141528489804,-0.5528340384235295,0.9039485238862744,8.076653749078432
4.555241708,-1.2794506391588236,-0.49719657764705893,0.8647520376509803,8.122200117
4.565233708,-1.3964145805117647,-0.4761661321450981,0.848717493317647,8.157511344568627
4.575224708,-1.474352909035294,-0.47016418885098055,0.8809601296117645,8.22430838409804
4.585216708,-1.4665852499372551,-0.5333652580960785,0.9436866170627449,8.231695481843138
4.595208708,-1.4084528854274512,-0.5093264889392158,1.0032686209843136,8.226406753509805
4.605199708,-1.3207233598980392,-0.4532685331137256,1.0300628675921568,8.17884484509804
4.615191708,-1.224069286447059,-0.5149248253254902,0.9659807777098038,8.093965617039217
4.625183708,-1.1438928960156864,-0.5613685369588236,0.8080507275725489,8.036782295098039
4.635175708,-1.0759485482313726,-0.5709514011156864,0.7257419306666666,7.963038990313725
4.645166708,-0.9575993670941177,-0.5686751029784315,0.6803190053137255,7.859468116823529
4.655158708,-0.7701632120705884,-0.5743175858215688,0.5953826359333333,7.681774366470588
4.665150708,-0.5505720257823531,-0.6102356557607844,0.4755744713058823,7.486477488196079
4.675141708,-0.3306579240764707,-0.6828545944960785,0.31564854863921554,7.319043547470589
4.685133708,-0.16695386311568639,-0.744200353692157,0.16050371650196069,7.205862737392156
4.695125708,-0.040432464345098146,-0.8060671857901962,0.055806132952941095,7.119451332235293
4.705117708,0.08278220785294108,-0.8338228120996081,0.016069332454901882,6.989856542662745
4.715108708,0.1934845952540587,-0.8247863760015687,0.044507707180392084,6.9405834381921565
4.725100708,0.2725387215775881,-0.8263049667074511,0.1187708600254901,6.939466564741176
4.735092708,0.34372223193052936,-0.8319172045309804,0.18376090782941168,6.943504790172549
4.745084708,0.45872853693641163,-0.8611213982760785,0.2231165185829411,6.982188509760784
4.755075708,0.5684316237403332,-0.8862159051388235,0.24204530852411757,7.050573420407843
4.765067708,0.5525745709952352,-0.8999971102564708,0.3308069364064706,6.9917118808
4.775059708,0.3462716637403332,-0.8862327130164708,0.47062897366137246,6.747352618643137
4.785050708,0.10263485766190188,-0.8444607432615686,0.5499125659358823,6.494418322368627
4.795042708,0.0442979324069999,-0.7914063186694119,0.5776792790339215,6.437418705015686
4.805034708,0.17050987589719596,-0.7697405617203922,0.6092326661907842,6.523884340721568
4.815026708,0.4122942266030783,-0.7996944888937256,0.6895661059750979,6.609087904113726
4.825017708,0.710491011877588,-0.8158822646584314,0.784179342082941,6.701202240741177
4.835009708,0.9585821005834706,-0.7810827441290197,0.8337845615241175,6.784797122623529
4.845001708,1.1653911015442546,-0.6818725545996079,0.8357259517594118,6.8364188736431375
4.854992708,1.4062846689756274,-0.5199606193839217,0.7762199272496078,6.830052120701961
4.864984708,1.598995150187392,-0.38073912559960793,0.6545837374162745,6.796389828349019
4.87497625,1.6525913250305293,-0.2842432135800001,0.5797525734280391,6.769298435270588
4.88496825,1.6716746075991566,-0.278255509972157,0.5446514856241176,6.794340199309803
4.89495925,1.787613933324647,-0.3162687748545098,0.5356338523299999,6.897340358996079
4.90495125,1.9618132992207253,-0.32816756634470595,0.5521419351339215,6.9979433113882346
4.91494325,2.078244501887392,-0.32874262279568633,0.6351828879907843,7.045588606819608
4.92493425,2.0961986240442547,-0.30694947679568635,0.7635427659515684,7.1288074847019605
4.93492625,2.0451724380442546,-0.30589954042313733,0.8100776597358822,7.1880882361137255
4.94491825,1.9961952195932744,-0.37349498712901974,0.7844675430888235,7.220138480819608
4.95491025,1.982604616514843,-0.44874134355843137,0.6884897631868627,7.188028627545098
4.96490125,2.0491068116128823,-0.4265191724486275,0.5259879843633333,7.063041540094118
4.97489325,2.1731183532658234,-0.4115497041917648,0.33718191834372546,7.0056531757215685
4.98488525,2.2156034568932745,-0.46536019669176476,0.20662890450058818,7.0445249906039225
4.99487725,2.1192783265795487,-0.47314355155450993,0.1597481393045098,7.004989051858824
5.00486825,1.9605518512717057,-0.4535375508290197,0.177534956575098,6.898763280015685
5.01486025,1.8387614404207253,-0.49606130055450987,0.21192494268490195,6.854106963133334
5.02485225,1.7889304826364116,-0.6224824023780393,0.24467126787705878,6.889742316584314
5.03484325,1.8321961523030783,-0.7588877625152942,0.2945628303378431,6.931781818152942
5.04483525,1.9218165813815096,-0.9039231887309805,0.3656553018280392,6.94778650252549
5.05482725,1.9829721054285685,-1.0296912368290196,0.4338314401221568,6.929671119643137
5.06481925,2.0412933980560197,-1.1332024088682353,0.4812499485143137,6.920626622662745
5.07481025,1.971064050114843,-1.300674289464314,0.55690842473,7.067921115956863
5.08480225,1.8588274450364117,-1.4186488475035293,0.640340670965294,7.221109861192156
5.09479425,1.8715522703893528,-1.2726987332976472,0.6588190418672549,7.299767703858824
5.10478625,1.8409074488207253,-1.1315281445525491,0.626129007592745,7.391281112937254
5.11477725,1.7651157363501373,-1.0559895018662746,0.624283288102549,7.4774803216235295
5.12476925,1.6911444684677843,-0.9396233752584316,0.7356498504162745,7.585686218231373
5.13476125,1.7041945423305294,-0.8575828924682354,0.9685794987496079,7.657429469152942
5.14475225,1.7476104625128823,-0.7818860080760786,1.1230135344790195,7.767345923211765
5.15474425,1.7015004320030782,-0.7132125698211766,1.2223754649692156,7.888547460603922
5.16473625,1.609765242724647,-0.6009757698407844,1.3328071048005883,8.057400889388235
5.17472825,1.5861358073187646,-0.3731684774113726,1.3932650330947058,8.243745043152941
5.18471925,1.6280237411285683,-0.07202587634274517,1.4619305948005883,8.435403698780393
5.19471125,1.6581866317285685,0.19437206502980384,1.5312388457574508,8.585384140819608
5.20470325,1.6757342634830783,0.40441224883372534,1.5905841635515685,8.691605863133333
5.21469525,1.6695909809458236,0.5505649174568626,1.615088846892745,8.828639428235293
5.22468625,1.627197864897647,0.6574601598294117,1.593218930402549,8.912543076901962
5.23467825,1.601085108397647,0.7346474307117646,1.554928616422157,8.947147680509804
5.24467025,1.562263213715294,0.7149715041823528,1.5264155062456861,8.91472406237255
5.25466125,1.5806525579113726,0.6584589789254901,1.4627768159039214,8.934122047196078
5.26465325,1.5135126608721567,0.5239468440235293,1.4858931524137255,8.89283749664706
5.27464525,1.310582831832941,0.34237564110196067,1.4950183974137252,8.832902871960785
5.28463725,1.0791233196211762,0.20610564974705872,1.374684120962745,8.829451870784315
5.29462825,0.9218547157780391,0.049517008198039114,1.1425989681784312,8.921575127843138
5.30462025,0.8247194107584314,-0.1586738388803923,0.9231966353549018,9.036177881862745
5.31461225,0.6786124363996078,-0.2913879320294119,0.817451322472549,9.059742738549021
5.32460325,0.3941450108113726,-0.30612957671568636,0.7775856023352941,8.98033342290196
5.33459525,0.01961365067411761,-0.256014707937255,0.7242322460117646,8.918091855568628
5.34458725,-0.34639989854156866,-0.22537412848431382,0.7054178336098038,8.905707386058824
5.35457925,-0.7386846092866668,-0.23061939048431382,0.7467230121196079,8.957040294
5.36457025,-1.172598411247451,-0.23578228699411774,0.7700069802764706,8.985856175764706
5.37456225,-1.2027045551886273,-0.2371667700725491,0.7270844526,8.964772497294119
5.38455425,-1.1030602385611765,-0.3111746919549021,0.7793954553176471,9.07447328319608
5.39454625,-1.138025779874902,-0.44992207983725496,0.9171036324352941,9.154163475333334
5.40453725,-1.2723306997768629,-0.5200827975235295,1.0998243864745099,9.123154092411765
5.41452925,-1.4805345483062746,-0.5594331142686276,1.3032679823568627,9.129275439862745
5.42452125,-1.6671839548160785,-0.5308942304843138,1.3462426785137256,9.167813234882354
5.43451225,-1.798643481992549,-0.4553734390000001,1.1968883268862744,9.126575273078432
5.44450425,-1.8098468618356862,-0.33442055005882365,1.0363322234156862,9.022773843235294
5.45449625,-1.7534924063062745,-0.13290113529411773,1.0353897325137253,8.97506284027451
5.46448825,-1.7607419333258822,0.03177716350980382,1.1906578434745096,9.077592841000001
5.47447925,-1.8071378468160784,0.04537020867058813,1.4652016527294116,9.28654004264706
5.48447125,-1.8483393834298039,0.0024374175568626427,1.810389758592157,9.455998785901961
5.49446325,-1.7992453725866668,0.003812189674509707,2.115521800298039,9.60622520645098
5.50445525,-1.7113567426062744,-0.004003508325490281,2.321734485592157,9.738755662960784
5.51444625,-1.6480863895729414,-0.020796149894117724,2.4116323077235293,9.81196286154902
5.52443825,-1.5957912029964707,-0.0244359613843138,2.374878166209804,9.824404177568626
5.53443025,-1.6049795921964705,0.03868780422352934,2.291774006111764,9.767717799686274
5.54442125,-1.7285326978043138,0.14004161739019602,2.2383293715941175,9.766587034529412
5.55441325,-1.8766059073533334,0.2571279375078431,2.2002096529862745,9.775018394901961
5.56440525,-1.91938890942,0.35724804548823524,2.177215139221569,9.767711517490197
5.57439725,-1.8889623624219607,0.450894414390196,2.189395674790196,9.757695564549019
5.58438825,-1.7260579612447648,0.6334531202921568,2.119798078378431,9.569742029823528
5.59438025,-1.5258305030918238,0.7523816228999999,1.953286438137255,9.324311046882352
5.60437225,-1.4662208768075096,0.5861713306686274,1.7835757274509803,9.168826765137254
5.61436425,-1.3616303474447646,0.394846112090196,1.6554169076470588,8.980909431941177
5.62435525,-1.1882878250722155,0.3351565652666666,1.569832421715686,8.863849788568627
5.63434725,-1.0154100445428038,0.34736400375686266,1.5074556206960785,8.809084367392156
5.64433925,-0.9342285263271176,0.36920447781568616,1.4553468628529411,8.78213939535294
5.65433025,-0.9992667849996666,0.48192813293333314,1.3908970748333331,8.857697039666666
5.66432225,-1.3082271365094706,0.7569211831098039,1.3354136824607843,9.228834451627451
5.67431425,-1.2881563165486862,0.5892370600490195,1.4444019528333334,9.24233566162745
5.68430625,-0.9843840848820196,0.1986391564019607,1.626811142009804,9.361727587313725
5.69429725,-0.7104973794173136,-0.2032885989117648,1.6188377296960783,9.390720100058823
5.70428925,-0.45954454293888225,-0.6531241859705883,1.4534705142490194,9.523165604372549
5.71428125,-0.27667737920907837,-0.9758224788333334,1.2525408197490195,9.655966886901961
5.72427325,-0.12482669924241171,-1.2035494237156863,1.1020693517686275,9.712885616117648
5.73426425,0.03367948509092162,-1.3849143460294118,0.9873979431607842,9.706421661431373
5.74425625,0.16090437558111773,-1.5108197463686275,0.8777938405529412,9.678462708392157
5.75424825,0.24753917049876478,-1.601583988290196,0.8153196060039216,9.696354140980393
5.76424025,0.1816180223811177,-1.6986774971901961,0.8898408790196077,9.662639198705882
5.77423125,0.15693061928307847,-1.764047889190196,0.9814561889019607,9.68514408454902
5.78422325,0.2707248051066079,-1.8008928344254902,1.0431344167666665,9.743731692568627
5.79421525,0.4253714974752354,-1.876850470209804,1.141501254335294,9.77654930590196
5.80420625,0.5453791438869999,-1.9538287087588235,1.2916122128254899,9.761143571784313
5.81419825,0.6455204222203335,-2.00380763542549,1.450776633178431,9.75087383864706
5.82419025,0.8551491627164117,-2.1267338678372547,1.5598982774333334,9.893060142647059
5.83418225,1.1894376630693528,-2.343098170798039,1.5960271796294119,10.133813700058823
5.84417325,1.5490130839909217,-2.599509778654902,1.5769684439039215,10.313517468764706
5.85416525,1.8377885947556276,-2.813564591872549,1.500996270315686,10.400529699764705
5.86415725,2.0628919512713138,-2.992253037284314,1.3678752682960784,10.385558694078432
5.874149125,2.2980525874791566,-3.123992067107843,1.2736398210607844,10.31273508909804
5.884140125,2.1942456380477844,-3.1927408083235296,1.3353706767313727,10.278364720921568
5.894132125,2.055509130596804,-3.1952614742058825,1.3957436713470586,10.190814132549018
5.904124125,2.055943572988961,-3.1000687918725487,1.4015893850529413,10.108951340392158
5.914115125,2.0318783996360197,-3.0331447488137253,1.308617223393137,10.014050498137255
5.924107125,2.0212075693026863,-2.947309124970588,1.1395965070833334,9.87313729819608
5.934099125,2.041555661930137,-2.9193187329509804,1.1118211091617647,9.831573114803922
5.944091125,2.0905437607928823,-2.9495484824549023,1.2313786231421568,9.866499595235293
5.954082125,2.0692532919105293,-3.0043701649254904,1.3392804120833335,9.935558106058823
5.964074125,1.9421151265183727,-3.0731487498666668,1.263498444965686,9.966715188431372
5.974066125,1.8601628907340588,-3.0799498412980397,1.052953577632353,9.917456409803922
5.984057125,1.8039845624987647,-3.030051308043137,0.7995329839694116,9.822195204705881
5.994049125,1.7344607269889607,-2.9446198873176477,0.5610434533831372,9.672730931196078
6.004041125,1.6446162793301375,-2.840812720062745,0.34271746982039214,9.462293381117647
6.014033125,1.6030322345066077,-2.7363275050803924,0.17885570602431367,9.297730524705882
6.024024125,1.549147546843863,-2.634038366713726,0.07709802797725485,9.149100214729412
6.034016125,1.4424776888438628,-2.5307338306745093,0.06177934909686269,9.096605889356862
6.044008125,1.414799979534059,-2.443205495223529,0.0741361266066666,9.125098193768627
6.054000125,1.534223555004647,-2.360785723037255,0.0610888387713725,9.135002912337255
6.063991125,1.7384536701811177,-2.180632584605882,0.09788055724196074,9.275366872023529
6.073983125,1.9058857925732746,-1.997443330998039,0.14491299175176464,9.47520400355294
6.083975125,1.9852235389477846,-1.8925610098215686,0.15000191526156859,9.565747028729412
6.093967125,2.016008826966667,-1.851601149507843,0.18394423394784307,9.620886513474511
6.103958125,1.9984155167058826,-1.8735460594039217,0.28481213060078425,9.69344029274902
6.113950125,1.9639305563235294,-1.8712835767607843,0.4578760704047058,9.770120696239216
6.123942125,1.8910645999607845,-1.866244469243137,0.6571668361498039,9.887611439121567
6.133933125,1.7204404481372548,-1.8618835470078432,0.8137985751203921,10.018902568337255
6.143925125,1.545278034352941,-1.8606581196549021,0.8851332646694117,10.08660786155294
6.153917125,1.4343781744313724,-1.8795142894980392,0.8949126869831371,10.091969311278431
6.163909125,1.4672709121764707,-2.0542840913215685,0.9080200922184313,9.944991387062746
6.173900125,1.8072460993333335,-2.4534009869568623,0.8236451601694117,9.431374054709805
6.183892125,1.8822901965607843,-2.411374456935294,0.543550895875294,9.277110013650981
6.193884125,1.6858831170313728,-2.0786068574254903,0.6209712872086274,9.247271657964706
6.203875125,1.4492116920313725,-1.797285778464706,0.8487940117772548,9.196441547768627
6.213867125,1.199102713390196,-1.5191176786215683,1.144482719992941,8.955320893905883
6.223859125,1.0228396372196078,-1.353565072047059,1.4548552887184312,8.763505900356863
6.233851125,0.9248230564549019,-1.2956351702627449,1.7005802729537254,8.682018218807842
6.243842125,0.8608078025529412,-1.3192088965960784,1.8583428863458824,8.651310361984313
6.253834125,0.8253612417686274,-1.3985363057274511,1.9278446228262742,8.647624591141177
6.263826125,0.813872471945098,-1.4630944277470588,1.8879865356105883,8.699794120611765
6.273818125,0.8008299363960785,-1.4691555368450981,1.7346158002811765,8.76480503447451
6.283809125,0.7887103781215686,-1.3848641282568628,1.50195911379098,8.805715220552942
6.293801125,0.7660352082980392,-1.2704208184921568,1.285195540632157,8.839492798788235
6.303793125,0.6911291024941176,-1.1941191715313724,1.1485256569654902,8.848404450749019
6.313785125,0.5260919838568627,-1.1312748111784312,1.0279681316125489,8.839750673494118
6.323776125,0.30178553401372554,-1.0500239891980392,0.8569611963576469,8.833850882905882
6.333768125,0.01940994979803924,-0.9049392400803922,0.6995166829458822,8.72962114192549
6.343760125,-0.3185291621823529,-0.6587452059509804,0.6378551798478431,8.499450832886275
6.353751125,-0.6492722837509805,-0.37928592625098034,0.7138776280360783,8.279384535082352
6.363743125,-0.9269660138294117,-0.144457056472549,0.8444265660164705,8.183573579219608
6.373735125,-1.124197390207843,0.056636463241176514,0.9363172453694117,8.160632351219608
6.383727125,-1.281049890219608,0.19207002761372555,1.0274931083498038,8.158628568317647
6.393718125,-1.4250767577490195,0.24209472314313724,1.118631388620392,8.17663540474902
6.403710125,-1.5943010947294118,0.26366192584901965,1.1378797976988233,8.17646052247451
6.413702125,-1.7582176159843137,0.30703602124117646,1.0941940629282354,8.143351908003922
6.423694125,-1.7915686149372552,0.3516792949078431,1.2383331909017645,8.204766717631372
6.433685125,-1.780383077701961,0.3592264222803922,1.4887378623096077,8.3857222734549
6.443677125,-1.7982262460745098,0.420352148454902,1.5388960807213723,8.43133530067059
6.453669125,-1.7919819700941175,0.5186769204745098,1.494414820799804,8.40162126627843
6.463660125,-1.7532198144666664,0.6140801827882353,1.5213152115841173,8.40871228274902
6.473652125,-1.6823342942509805,0.6717292806509805,1.6147207210743137,8.416102603141177
6.483644125,-1.6063403253490194,0.6472683138470589,1.7245487777801962,8.384580960788234
6.493636125,-1.549502110172549,0.579447055682353,1.8181797117568628,8.347437987964705
6.503627125,-1.5220724776039214,0.4765665459764706,1.8708657445588237,8.3471120362
6.513619125,-1.5096248561313728,0.3348515012901961,1.9229276300823528,8.430249470513724
6.523611125,-1.5135308047980394,0.16413446185686278,2.000662183133333,8.562135016396079
6.533602125,-1.4589041112137255,0.015378303254901948,2.111142966807843,8.749098555705881
6.543594125,-1.328442162037255,-0.10294836037254904,2.214294919162745,8.85826569937255
6.553586125,-1.2429589819784312,-0.21486125900000003,2.2980463488490193,8.879352585274509
6.563578125,-1.251045602401961,-0.32507661920980396,2.3391698795941176,8.798975256803923
6.573569125,-1.3410113296352943,-0.5376474664450981,2.2956174126117648,8.566438682603922
6.583561125,-1.4496685186568627,-0.7855223113666667,2.2320839004862747,8.324985923937255
6.593553125,-1.4939324914803922,-0.9864266678568628,2.170687522741176,8.218284692094118
6.603545125,-1.5075734236156864,-1.1045136758960785,2.1148324767607845,8.155249855545097
6.613536125,-1.481122109037255,-1.1161144944254904,2.0347814890196076,8.07978949062353
6.623528125,-1.4465998497254904,-1.0973014564137256,1.8985372139509802,7.9712474092901955
6.633520125,-1.3951683284313727,-1.0682027074705882,1.7480103937607845,7.852046787368628
6.643512125,-1.2847561836137253,-1.0822683910980393,1.636385453290196,7.709463368035294
6.653503125,-1.190650550317647,-1.1224223445490196,1.5699231109568625,7.597412745486274
6.663495125,-1.0986599122392156,-1.1644595944509804,1.5205413798392158,7.519327073878431
6.673487125,-1.004450043709804,-1.1981113867843138,1.5028011109960784,7.4925548557803925
6.683478125,-0.8941074549647059,-1.1617871531882353,1.5927376279470586,7.538680484035294
6.693470125,-0.8230763305058824,-1.12315641087451,1.7138820762607843,7.56513529297647
6.703462125,-0.8313088432705883,-1.2238139009137254,1.483427233280392,7.34061142897647
6.713454125,-0.8266001550352943,-1.3019700554235294,1.2910143409568624,7.180800401309805
6.723445125,-0.7735740048843138,-1.2825259423254902,1.1571868003490196,7.155230064035295
6.733437125,-0.7171100186745097,-1.2267482057039216,1.0236335170941175,7.138495107094118
6.743429125,-0.6452383111058824,-1.1467804118019609,0.8875297213686273,7.139523623447059
6.753420125,-0.5315585272235294,-1.0434377198411764,0.7487496005843135,7.205184558231372
6.763412125,-0.44537172649803924,-0.9622761538117648,0.6734128702803921,7.256257322113725
6.773404125,-0.4423540473019608,-0.9220204473215687,0.7172151222999998,7.210224828721569
6.783396125,-0.43483960700784313,-0.8950315343019608,0.8181171062019608,7.134058826819608
6.793387125,-0.3846250374784314,-0.8987819728117648,0.9502135154764706,7.076308089643137
6.803379125,-0.3025877190666667,-0.8747160828705883,1.078762659809804,7.031584663368628
6.813371125,-0.2574057964392158,-0.841130134772549,1.2795213433196078,6.907459069996078
6.823363125,-0.16068465627254905,-0.8218307918705883,1.5341557729549018,6.781024020662746
6.833354125,0.014824325413725421,-0.8236994473411764,1.780398829145098,6.683446943996078
6.843346125,0.22053756964901955,-0.8946756452235295,1.9108787699882352,6.687688360662745
6.853338125,0.44406517609999996,-1.1002812891568627,1.9078438586941173,6.830978508133334
6.863329125,0.7453758904529412,-1.3591206494450983,1.8106568860549017,7.024117461427451
6.873321625,1.0980158600019607,-1.6068749843215686,1.6960434451529411,7.163734135721568
6.883313625,1.4085807217862742,-1.8118534169764704,1.6297372693490195,7.216207509603922
6.893305625,1.6525942431980392,-1.9542496852313727,1.5394074182313722,7.248413689839215
6.903296625,1.8089710894137254,-2.021790162388235,1.4249788181333334,7.251117189780391
6.913288625,1.9366267849627452,-2.0386411958588235,1.3850460327215683,7.227226448662745
6.923280625,2.1139690980803922,-2.0493450629764705,1.3518899767862742,7.2314988855254905
6.933272625,2.2053975263666667,-2.0916114893490194,1.1304073881392156,7.219385910447058
6.943263625,2.259721613643137,-2.1585894643686276,0.8072475321392156,7.106899149956863
6.953255625,2.344209368290196,-2.2795695371313727,0.6029020892568626,7.020885626074509
6.963247625,2.4177935963490196,-2.447392262131373,0.530557539707843,6.960496152937256
6.973238625,2.483614011839216,-2.631321165582353,0.5000501277078431,6.925866897780391
6.983230625,2.5294669311137254,-2.8350034768960786,0.47911370200196074,6.916864309545098
6.993222625,2.550777819388235,-3.026330380778431,0.4502964563549019,6.937303998564706
7.003214625,2.5715862656039215,-3.1731686411823525,0.37117349627450974,6.960839035584315
7.013205625,2.5934882443490195,-3.2388193441039212,0.25558194517647054,6.983045319898039
7.023197625,2.560142962201961,-3.226515724652941,0.1398842757058823,6.970544866290196
7.033189625,2.460319305182353,-3.1489669123980395,0.027603759196078367,6.880814435054901
7.043180625,2.3368667774176473,-3.059966259496078,-0.06698914495098045,6.763801191623529
7.053172625,2.2046250762411765,-3.0139198604372552,-0.11214012318627456,6.6897598236039215
7.063164625,2.102825819907843,-3.0079327128882354,-0.10636123397058828,6.689783007074511
7.073156625,2.0379496795862746,-3.0255749892862744,-0.05013714842156869,6.755643361035294
7.083147625,1.9717708097019608,-3.036329497871765,0.020939332090196022,6.829211416549019
7.093139625,1.8947920006647059,-2.985143476518824,0.08136588605882347,6.903068391941177
7.103131625,1.7864560789000001,-2.841758765126667,0.14119053796078426,6.973151536254902
7.113123625,1.6970271088588234,-2.689305446479608,0.19678789945098035,7.073458127921569
7.123114625,1.6462254989372547,-2.5771188752305885,0.27601526674117643,7.197543655196078
7.133106625,1.6550069405586272,-2.475315617556079,0.3891138775156862,7.326764489019608
7.143098625,1.695177115742941,-2.3862208130266667,0.4861899751960784,7.435680828352941
7.153089625,1.7043431723056863,-2.2967001592227447,0.543744199117647,7.540080663411764
7.163081625,1.7030933457252941,-2.1924469296541176,0.5842576073137254,7.643329031666667
7.173073625,1.6574665202154901,-2.082292999614902,0.6315915517843137,7.754805186196078
7.183065625,1.5752898832743139,-1.9572060833599998,0.6698345778431372,7.857955401058824
7.193056625,1.4798199168429411,-1.8357850158894118,0.7036153758039215,7.95620150927451
7.203048625,1.3786255549605881,-1.7292649469286276,0.7559848621372549,8.062943916294117
7.213040625,1.2673935072743139,-1.6276526294972549,0.8186339484901961,8.17044563872549
7.223031625,1.1551967721958825,-1.5314439877521568,0.9062536724803922,8.278501975019608
7.233023625,1.0412935042939215,-1.4414071738501963,1.0141088900882351,8.378170344784314
7.243015625,0.9224700451762745,-1.3414315150266667,1.111563779872549,8.477092567039215
7.253007625,0.7581404410782352,-1.2350649182815687,1.1971242091078431,8.535772281411765
7.262998625,0.538287746607647,-1.128010849477647,1.3057280136372549,8.519351994843138
7.272990625,0.3718334850390196,-0.9940422075462744,1.3923736488333334,8.498178126156864
7.282982625,0.332746831862549,-0.8383302241541175,1.3940718149705884,8.508568416490196
7.292973625,0.32165372935274505,-0.730775094840392,1.3363014275196077,8.519402406039216
7.302965625,0.2535343205292156,-0.7024684487031372,1.2312178818725488,8.539121593803921
7.312957625,0.1683306431174509,-0.8405231248796078,1.1508456211666667,8.603280483803921
7.322949625,0.21488855888215683,-1.1662034289580392,0.918681519617647,8.972153448941176
7.332940625,0.24587798780372544,-1.6409097922129412,0.5800503925313725,9.507774501607843
7.342932625,0.1527198126860784,-1.9605752375462744,0.3438656020274509,9.832544713568629
7.352924625,-0.04470538170607846,-1.930181983840392,0.24733888322352932,9.820392715529414
7.362916625,-0.34520351651,-1.6318413226050978,0.2730632957333332,9.745749057882353
7.372907625,-0.7520354004707844,-1.2024007665462744,0.3512292758509803,9.722444995333333
7.382899625,-1.1384909760394117,-0.7982157108011765,0.4973612785764705,9.68255788552941
7.392891625,-1.4485816057060785,-0.5044439147815687,0.66243650012549,9.681379953372549
7.402882625,-1.7215447262158825,-0.34546219131490197,0.8840667940274509,9.747764515333333
7.412874625,-1.929873756745294,-0.3783367396482353,1.0615863121647058,9.86990550482353
7.422866625,-2.0221577416080394,-0.6091383683541177,0.9189795441647057,10.115047824039214
7.432858625,-2.050149469333529,-0.9337965446482352,0.8349622309686273,10.421222945960784
7.442849625,-2.1219583250629412,-1.0501605960207843,1.0981136261450979,10.556057054627452
7.452841625,-2.261376829947255,-0.8931315559619608,1.3091809364392157,10.611037571568625
7.462833625,-2.3573120799668628,-0.6449179623541176,1.4385509037725488,10.70823357545098
7.472824625,-2.3830240184178435,-0.35535398323647055,1.5402131403607844,10.836837504745098
7.482816625,-2.339027352929608,-0.03934235980509799,1.6913927175960783,11.009501165588235
7.492808625,-2.2497951897186277,0.29517301831254905,1.8905545464588234,11.191806544607841
7.502800625,-2.192087522248039,0.6127858616262746,2.060594260380392,11.299923637745096
7.512791625,-2.2189700102284315,0.8584808760184314,2.183722769284314,11.3390136837451
7.522783625,-2.272617050130392,0.961129537894902,2.2685238687745097,11.314843806019608
7.532775625,-2.281865344640196,0.8982511948164705,2.3575569393235294,11.370817523980392
7.542766625,-2.209850626777451,0.7037675052282353,2.4516826652647055,11.556981817313725
7.552758625,-2.0568092731303924,0.47946511393411767,2.495633706,11.782601983686272
7.562750625,-1.878507816012745,0.33463186375764714,2.4790613955490195,11.935318962098037
7.572742625,-1.7374891747186274,0.30168644946352946,2.429169715578431,11.961662509901961
7.582733625,-1.6541103359147058,0.34589059724392157,2.370779944601961,11.911992389901963
7.592725625,-1.6115282193715688,0.4077454138882353,2.2995329031039216,11.882908381764706
7.602717625,-1.5821879402931374,0.46530141490784316,2.2106531170294117,11.876356470411766
7.612708625,-1.5449538140382353,0.48864892280980393,2.0969601367941175,11.85091974690196
7.622700625,-1.5136209930186275,0.4886732288882353,1.9760365125980393,11.810526607705881
7.632692625,-1.5088570256656864,0.4858987938490196,1.8683346991313723,11.770455476352941
7.642684625,-1.5313006801282354,0.47421350026078435,1.7833909820490197,11.725566223117646
7.652675625,-1.5629076538615687,0.41995331100588235,1.7203778491862745,11.649835190294118
7.662667625,-1.5612037307929412,0.3288215658490196,1.6666286492647058,11.54487285672549
7.672659625,-1.52901172594,0.20909320998627454,1.6120342285784313,11.422751881666667
7.682650625,-1.4939835004635296,0.05703226243549023,1.5486423853235292,11.280245662450982
7.692642625,-1.43875786136549,-0.09859735548019603,1.4723409217745096,11.123862173313727
7.702634625,-1.368177382385098,-0.23399142248019605,1.3836663256862745,10.971051807490197
7.712626625,-1.2988278426203923,-0.35600027269588236,1.2776146401988235,10.819750972137253
7.722617625,-1.2330532847752942,-0.46551302689196067,1.1526364119243135,10.68240803988235
7.732609625,-1.1738527543635293,-0.5776611784998039,1.0149563817086271,10.552401905372548
7.742601625,-1.1086339313772549,-0.706345336244902,0.8737687673360783,10.41858410807843
7.752592625,-1.0451852726733333,-0.8601393985154902,0.7456556073949018,10.27571515854902
7.762584625,-0.9706189990164705,-1.0354085985115686,0.6484098501596077,10.13243863864706
7.772576625,-0.8701885873301961,-1.2168891351782352,0.582347715347843,10.028678577764705
7.782568625,-0.7578297840360785,-1.3955558426292156,0.5361599913870587,9.998234300882352
7.792559625,-0.6437234113694119,-1.5524624580409803,0.5071881614066666,10.056373047529412
7.802551625,-0.5343536044086274,-1.6652658417468627,0.5236124685047058,10.139044980843138
7.812543625,-0.43881224462431373,-1.7096632801194116,0.6129550344654902,10.154769125941176
7.822534625,-0.3945746645262746,-1.6226423340017646,0.7437031561517645,10.058377461235294
7.832526625,-0.4186407493694118,-1.3156117930213724,0.984261276857647,9.716773700745097
7.842518625,-0.4185760516439216,-0.8226160041782352,1.286846443367451,9.193325168294116
7.852510625,-0.3277349102517647,-0.4672956480017647,1.4723468950145095,8.854419666215685
7.862501625,-0.1339080235850981,-0.43221317959,1.5393130093478429,8.83314376852941
7.872493083,0.17347359108156857,-0.6175174857468627,1.510441258485098,8.833492671862745
7.882485083,0.5456244695521568,-0.9524923403743137,1.4677994064850979,8.755202677156863
7.892476083,0.881561821650196,-1.3087755494919606,1.386189281630196,8.716139511470589
7.902468083,1.1810495461207842,-1.5712058454135294,1.2715060868733334,8.68220491617647
7.912460083,1.4488163492580393,-1.7148943597821569,1.0825773984262743,8.597864331058823
7.922452083,1.6644749964737255,-1.676112816625294,0.8949529056419607,8.474547342862744
7.932443083,1.7811067987874512,-1.4329149875468628,0.9597694057988235,8.230974474078431
7.942435083,1.76823838416,-1.1204720230958825,0.9784294072890195,7.9383850228431365
7.952427083,1.7921174240266664,-1.0215868585664705,0.7162097945831372,7.797190919823529
7.962418083,1.9094920118894114,-1.1887499029782351,0.5587830750537255,7.723530348352941
7.972410083,1.9937902364972548,-1.4588789181743136,0.5330046961713725,7.657783863862745
7.982402083,1.9850325405952942,-1.797424208801765,0.5241203908576471,7.6307962942549015
7.992394083,1.876382357479608,-2.1869098689390194,0.3874528232498039,7.539294390333334
8.002385083,1.7626740418960785,-2.5701477103507844,0.11127999985764703,7.364917500529412
8.012377083,1.7574413227588235,-2.8889255483115686,-0.17526403846980396,7.205869956686274
8.022369083,1.8472815383666665,-3.1199731269782354,-0.35933014225411763,7.135730370254902
8.032360083,1.9284564039333334,-3.232096651482157,-0.4330000262933334,7.158507817176471
8.042352083,1.9512416332470588,-3.1962554437566664,-0.49171040239921576,7.114597747137255
8.052344083,1.889863232835294,-3.0290422507566666,-0.5570308236286274,6.945593381509805
8.062336083,1.7279320304823529,-2.8214034954037253,-0.5780005641580392,6.744623212294117
8.072327083,1.5311114553843135,-2.677965115717451,-0.5449512929815686,6.61327042645098
8.082319083,1.3763572172470586,-2.6188721109998045,-0.4845306693639216,6.594060186156862
8.092311083,1.2760297853254903,-2.622307373125294,-0.4218304571325491,6.654171358235295
8.102302083,1.216112892880392,-2.643956230478235,-0.3388408422619608,6.709819610254902
8.112294083,1.1915270249784313,-2.674967695399804,-0.2359814126384314,6.734517568803921
8.122286083,1.1921250661549019,-2.7084104325762746,-0.11385773916784317,6.7424477753137255
8.132277083,1.1975775976058822,-2.725070686301765,0.0176151850086274,6.765501187372549
8.142269083,1.2019914514686274,-2.7211644596154905,0.1331483234360784,6.809619618607843
8.152261083,1.1970675985862744,-2.6935281795566666,0.22213306273411756,6.871819228529411
8.162253083,1.1828721067823529,-2.6132206394978432,0.29598746653803915,6.978611741411765
8.172244083,1.139484132862745,-2.490240968027255,0.36729519008705874,7.125272939058823
8.182236083,1.0684493338235292,-2.339258636850784,0.441408132557647,7.290503947764705
8.192228083,1.0037220323666665,-2.1681590060843137,0.5197427532635294,7.462339935411766
8.202219083,0.9356514535039214,-1.9997565009921567,0.6058966376164705,7.636945955921568
8.212211083,0.854001536052941,-1.8426796971882353,0.7013606650968628,7.81356681154902
8.222203083,0.7626325229156862,-1.693004975482353,0.8103337915058824,7.9951311347450975
8.232195083,0.6702008356588235,-1.5541224596392158,0.9371755044862744,8.165791046019608
8.242186083,0.586125023090196,-1.4156715255803922,1.077918088427451,8.326867382882353
8.252178083,0.4970811695941175,-1.2661767833058823,1.223904558545098,8.487859162333333
8.262170083,0.4088527103215685,-1.091773452760784,1.359137202270588,8.65924197127451
8.272161083,0.32019473293921563,-0.8932329535882352,1.4555634664862744,8.827406689254902
8.282153083,0.23179594772352932,-0.6911374390196079,1.4999267674352939,8.941885278529412
8.292145083,0.1483370063647058,-0.5119172639411765,1.501696123415686,8.969930121960784
8.302137083,0.056965746070588144,-0.38310749427450985,1.462531776807843,8.933834576882353
8.312128083,-0.04402068996862754,-0.32812668729411765,1.3610577919058824,8.928965361980392
8.322120083,-0.10522456245882364,-0.3850984941568627,1.2323515064352941,9.00231691472549
8.332112083,-0.021797865419607935,-0.6733362789019608,1.003071311709804,9.35014461354902
8.342103083,0.06391050687450968,-1.2219971136078431,0.6819421821803919,9.948369282666667
8.352095083,0.006782298482352822,-1.7007758218627451,0.45893445625882334,10.415524530411764
8.362087083,-0.14311013892156876,-1.858285101764706,0.3201944404941176,10.560988361901963
8.372078083,-0.4158837121764707,-1.7948839373529415,0.2797716584156862,10.559012290607843
8.382070083,-0.7925620553333335,-1.6192020844509802,0.353826014062745,10.610610509431373
8.392062083,-1.2056969396862747,-1.3813575876666664,0.5413218566313726,10.702754291588235
8.402054083,-1.640009774137255,-1.1565799439607842,0.7343959801921569,10.820586479627451
8.412045083,-2.0274125069411766,-1.0832085545490195,0.8868214041843135,10.949833268058823
8.422037083,-2.2376797289607846,-1.1928927123921569,0.8480007850039214,11.064865275725488
8.432029083,-2.2528218506078432,-1.3435953631176472,0.7611973323176469,11.220896829019606
8.442020083,-2.2342241506470586,-1.3572992760784313,1.0101918846705882,11.331167233882352
8.452012083,-2.3460738190980392,-1.1543443010784313,1.375226701690196,11.49362813727451
8.462004083,-2.5094136099803923,-0.8720809490392156,1.5416038975333333,11.606295449509803
8.471996083,-2.6073886267843136,-0.6035014230588235,1.680701178180392,11.71439380139216
8.481987083,-2.590818251078431,-0.3221557399215686,1.9174882118078431,11.90851453764706
8.491979083,-2.49908482457451,0.012730684176470618,2.167656242945098,12.120960863137254
8.501971083,-2.4410564258490197,0.35933189017647066,2.292341191729412,12.18382061647059
8.511962083,-2.462686147888235,0.6303195861960785,2.3012399029843134,12.138052450490196
8.521954083,-2.485308171103922,0.7277317224901962,2.312763013737255,12.076918275352943
8.531946083,-2.4526041644156864,0.6457401728627451,2.4287515621294116,12.159534413941175
8.541938083,-2.32582197982549,0.45605582068627454,2.5929758647568626,12.386235240215685
8.551929083,-2.095168807237255,0.24356841666666673,2.7186552959999997,12.666633152647059
8.561921083,-1.8426834128058822,0.11181429876470596,2.751623755209804,12.872137948862745
8.571913083,-1.6527039080607844,0.10820394119607847,2.725608383529411,12.915200924705882
8.581904083,-1.5433156565705883,0.19294669750980398,2.6985984147843136,12.872926296039214
8.591896083,-1.4925709423509803,0.3106885822431373,2.6605689124117644,12.878226536411763
8.601888083,-1.4839701696647059,0.42045704319607846,2.5925612570568624,12.911874105803923
8.611879083,-1.4917381956647058,0.5014989935294119,2.493311790888235,12.938186959372548
8.621871083,-1.5096677709784314,0.5571417168039217,2.3912756907882353,12.954782521980391
8.631863083,-1.5366060654686275,0.5848373403725491,2.283476298345098,12.951721792078432
8.641855083,-1.5521216092137256,0.5761362019607844,2.160240015796078,12.908875005607843
8.651846083,-1.557848512664706,0.5367880750784314,2.036539715131372,12.83426143360784
8.661838083,-1.5513661045274512,0.4434765796470589,1.9240459586745096,12.710119816333332
8.671830083,-1.5092621304392158,0.2996689884470589,1.8293741601215685,12.535107756419606
8.681821083,-1.44721070117451,0.11142782078039218,1.7441038244549019,12.364520339419606
8.691813083,-1.3642776265666667,-0.08459110678823527,1.6544367838862746,12.193357234556863
8.701805083,-1.2720606639784313,-0.24811151929999997,1.5599993325529409,12.026435764047058
8.711797083,-1.190733535762745,-0.3736746167509804,1.4709090108862746,11.87904069422353
8.721788083,-1.1210659877235294,-0.4831295752411764,1.3863867290039213,11.74027684212549
8.731780083,-1.0478610461901963,-0.6015315532215686,1.2933953499980393,11.586570379890198
8.741772083,-0.9708677050954901,-0.7513577293392156,1.1759282027176468,11.401577420576468
8.751763083,-0.8906136384101961,-0.9322178535549019,1.0267717391490194,11.216601115184314
8.761755083,-0.8025322939356863,-1.1242689982235294,0.8618953802470586,11.054153740537254
8.771747083,-0.701918508974902,-1.308898684735294,0.7225641479137253,10.887147728870588
8.781738083,-0.5806773867003923,-1.4841670936333333,0.6322712918941175,10.73831391112549
8.791730083,-0.4334608974454902,-1.650582749247647,0.5820967815215684,10.671178202792158
8.801722083,-0.28198715508666666,-1.8067533148750978,0.5795373205215685,10.699168008047058
8.811714083,-0.15264007500823526,-1.9421781657378432,0.6515383088941173,10.764680604478432
8.821705083,-0.05874541726313728,-2.022443582894706,0.8191968073823528,10.758313958929412
8.831697083,-0.03298698771411766,-1.9861329813456863,1.0062416576960782,10.65239859530196
8.841689083,-0.16143749751803924,-1.7108114666790195,1.2411115842058822,10.279375286733334
8.851680083,-0.2896715628513725,-1.1675414437966665,1.5157043180098038,9.668543068203922
8.861672083,-0.25199846261607844,-0.686805167992745,1.683392900990196,9.204220837086273
8.871664125,-0.09376406632980391,-0.528289547875098,1.8004988838333331,9.072917802203921
8.881655125,0.20000192831725494,-0.6000329233849019,1.8526862580686274,9.089968604517646
8.891647125,0.6058113979447058,-0.8107923261692156,1.80584462622549,9.069512733341178
8.901639125,1.0365397516505883,-1.0804671502868626,1.6503895448333332,9.004796538439216
8.911631125,1.461921457199608,-1.2893982204633334,1.4607461460745097,8.868706764125491
8.921622125,1.832601915670196,-1.3254538834045098,1.2715024790352938,8.700604558086274
8.931614125,2.0393310677486274,-1.188181656365294,1.2665746807019609,8.56520971249804
8.941606125,2.064685546434902,-1.0075643407966666,1.3380324139960782,8.392358309694117
8.951597125,2.0653308898662748,-0.9597927608947059,1.091473605309804,8.264058475007843
8.961589125,2.1900857760035297,-1.1442300854633332,0.7424359677411763,8.084123580929411
8.971581125,2.3522558141800003,-1.4301531180515685,0.6114555797607842,7.956912876909804
8.981572125,2.4490185197368626,-1.7107726687182352,0.5512718858784313,7.865417766164706
8.991564125,2.4325186201878433,-2.004179105482941,0.38391673170196067,7.7205985405764705
9.001556125,2.3367975989780394,-2.3544924335417643,0.12316760203529405,7.5136272205764705
9.011548125,2.2759618947035296,-2.7072527525613723,-0.0785513632588236,7.421454077831373
9.021539125,2.302913270899608,-2.973790923835882,-0.15229140813921574,7.449317114203921
9.031531125,2.322003937017255,-3.0642648801692154,-0.17906261844705887,7.507846705498039
9.041523125,2.275785014289804,-2.9753121400515683,-0.2889327578980393,7.420405149439216
9.051514125,2.1402430184858825,-2.771690238541765,-0.4425214338588236,7.1795893196549025
9.061506125,1.9039986953094117,-2.5394494495809803,-0.5496625115105098,6.880099901282353
9.071498125,1.649312609544706,-2.3860990992868625,-0.5657743193340393,6.658834638262746
9.081489125,1.4702748274662742,-2.361043608247647,-0.5234782613399216,6.60309348612549
9.091481125,1.3750067992309802,-2.418938014012353,-0.47972505428109813,6.638677220105883
9.101473125,1.3341693779133335,-2.5141295727201953,-0.430114281418353,6.635327205086275
9.111465125,1.3272789387368629,-2.607206801171176,-0.3591785697693334,6.6063907800666675
9.121456125,1.335617125599608,-2.682958420092745,-0.27245605228698044,6.5729070925568625
9.131448125,1.348770970325098,-2.74106388740647,-0.185646061618353,6.54699494194902
9.141440125,1.370744038599608,-2.7694663820339214,-0.08775620348894127,6.5442970186352944
9.151431125,1.3858419650309803,-2.776924780759412,0.03398752566792148,6.576252400478431
9.161423125,1.391653535599608,-2.751044614465294,0.16888292835223517,6.65022601612549
9.171415125,1.3798131489133334,-2.667348956896667,0.2961975420639999,6.777894398772548
9.181407125,1.3399552107270587,-2.5293053101280387,0.4013385738718431,6.953953032235295
9.191398125,1.280430486599608,-2.3457756797947056,0.4898775145581175,7.121985130215687
9.201390125,1.2027859089917647,-2.163371936559412,0.5769062914208627,7.2795389111568625
9.211382125,1.1255451905603922,-2.0090028866162744,0.66250002398949,7.430925231862745
9.221373125,1.0571217781094118,-1.8838289385574507,0.742374193636549,7.570712928156862
9.231365125,0.9943025664427452,-1.7777876763025489,0.8188114387149803,7.70118182809804
9.241357125,0.9314067591054902,-1.6760371582241174,0.9043022731718429,7.834544715235294
9.251348125,0.8748006296774511,-1.54668723193,1.0166690432953724,7.993898809843138
9.261340125,0.8099663241686276,-1.3880854513613723,1.165802828844392,8.155172841117647
9.271332125,0.7316685409294119,-1.2239219139084314,1.3320642326287058,8.29143473282353
9.281323125,0.6328213660666668,-1.0734666920241176,1.4725051804914508,8.429747004882353
9.291315125,0.4986214495568628,-0.9396505248319607,1.57275869958949,8.552044571803922
9.301307125,0.3358717459294118,-0.8204890966490196,1.6422665297855685,8.58570662645098
9.311299125,0.16571483393725497,-0.7117993438058822,1.672248469126745,8.51026224582353
9.321290125,0.009261784737254938,-0.6132677408647059,1.6250938650483135,8.398358775843137
9.331282125,-0.10646406889019605,-0.5582665030215684,1.4729681624424313,8.388768121058824
9.341274125,-0.16839574775294117,-0.5993429751392155,1.2954845415404703,8.478618788019608
9.351265125,-0.127474456145098,-0.8351374496098037,1.0690450618934115,8.784752882862746
9.361257125,-0.01922007434117644,-1.2961815413156859,0.7691022406385097,9.33407567472549
9.371249125,-0.046776413792156815,-1.6763734992764705,0.5953918509914508,9.712619417803923
9.381240125,-0.20477585662941175,-1.7280645939627448,0.5217821015600783,9.735444099352941
9.391232125,-0.4751746348450981,-1.5537370823156862,0.5271761866777255,9.676304766960785
9.401224125,-0.8357926944921568,-1.237826673060784,0.5713283114228235,9.707647218725489
9.411216125,-1.2095752901588235,-0.9101623514137255,0.7068166647561568,9.74045509127451
9.421207125,-1.5731564206098039,-0.7041795276098038,0.8801327342208626,9.815590294803922
9.431199125,-1.9111248490803923,-0.6193450388058822,1.0360035211228236,9.927910917705882
9.441191125,-2.1782742894137255,-0.6457475907666664,1.1193577012992941,10.012026097803922
9.451182125,-2.357028779629412,-0.8394588400607842,1.030287913691451,10.211551416294117
9.461174125,-2.378012464609804,-1.1168719152960782,0.9590762908483137,10.474061032352942
9.471166125,-2.366078165609804,-1.2214758975509803,1.273032491946353,10.6697625052549
9.481157125,-2.4548280130607845,-1.073095749315686,1.5268810586522352,10.778104517313725
9.491149125,-2.5413325067941175,-0.8339551655901959,1.5622504190051762,10.822616491039213
9.501141125,-2.5623009259509804,-0.5603748026882351,1.5775201819071372,10.838645927411763
9.511132125,-2.4863584642392156,-0.23836235380588214,1.7450501103973335,10.949163418196077
9.521124125,-2.3818540566372546,0.10874412040980404,2.018117420201255,11.097420821137254
9.531116125,-2.3628884063039215,0.41291681750784326,2.2402550689836076,11.164619470156863
9.541108125,-2.4462645536764707,0.6170357553313727,2.3395994205718433,11.180675356666667
9.551099125,-2.5235170382058825,0.6926660846647059,2.388948682448314,11.174269234901962
9.561091125,-2.5529117995980393,0.6490511413313725,2.4677222799973335,11.231504727235295
9.571083125,-2.517204738194118,0.5315847062921569,2.5090010027274507,11.348005177960786
9.581074125,-2.418309160409804,0.38998510403725495,2.5056628789039217,11.482678088235295
9.591066125,-2.298719188645098,0.30857082364509814,2.4785941513745096,11.544207581686274
9.601058125,-2.21488879862549,0.29065326950784326,2.434221047727451,11.510002791921568
9.611049125,-2.165464584192157,0.31727659398039226,2.372482570609804,11.446952072215685
9.621041125,-2.142695781545098,0.35247229201960795,2.295756149194118,11.416959773333334
9.631033125,-2.1251920898980394,0.39194804874509814,2.215682950635294,11.405579437705883
9.641025125,-2.1142737560745095,0.42367852627450997,2.1341702435549017,11.395963234215687
9.651016125,-2.0946064799960786,0.4295916549607844,2.053429558096078,11.358369543960785
9.661008125,-2.0452114421607845,0.42946495380392175,1.967403097182353,11.305065452960784
9.671000125,-1.971257670082353,0.4062321430588237,1.8862517695156864,11.243778387647058
9.680991125,-1.8607258035333332,0.33605882519607855,1.836893209417647,11.186427756078432
9.690983125,-1.725230043709804,0.22043964027450993,1.8153908878882352,11.135975477392158
9.700975125,-1.6002164928078428,0.05931543966470601,1.8003396273980392,11.059345648862745
9.710966125,-1.476084627494118,-0.10575790160196066,1.7695220148686275,10.96876630682353
9.720958125,-1.346329976435294,-0.25019324299019596,1.7064854988686273,10.875148802921569
9.730950125,-1.2347926238274511,-0.3966185982450979,1.5958299923784314,10.753767503490195
9.740942125,-1.1400274905333334,-0.5373842270882352,1.4405489946333332,10.622292265607843
9.750933125,-1.0728723047509805,-0.6666191695980391,1.255500211809804,10.505221068627451
9.760925125,-1.0421946728686275,-0.7805124857745096,1.059401452554902,10.410898849803921
9.770917125,-1.0352448156529412,-0.8899132715196076,0.8766917623588235,10.318843003470588
9.780908125,-1.0205128303392157,-1.0088638674607842,0.7261329644960784,10.205574632803922
9.790900125,-0.9653194598686274,-1.1482172102843136,0.6055599640058823,10.054697896098038
9.800892125,-0.8608544063196079,-1.3106354685156862,0.5223505540137254,9.903368434803923
9.810883125,-0.7332484522215686,-1.4749146776529414,0.4892787710823529,9.846253083784314
9.820875125,-0.6129240572686275,-1.6090527512411763,0.49792138576078426,9.88122853337255
9.830867125,-0.5042302858921569,-1.6940257388098037,0.5511347514392158,9.943468547725491
9.840858125,-0.4121975106176471,-1.7147237701039213,0.667841254792157,9.923482462352942
9.850850125,-0.3370023287941176,-1.6392240744568627,0.8095360406745099,9.833429437568627
9.860842125,-0.3286574004607843,-1.3743195349470585,1.0368124059294117,9.54550170490196
9.870834125,-0.3695294608333333,-0.9000246436333332,1.3611581775764707,9.028669760215687
9.880825708,-0.2985848780294118,-0.5286682527313725,1.5553755034784313,8.678492877862745
9.890817708,-0.1516437352901961,-0.4942129383,1.6279343477333332,8.657511046215685
9.900809708,0.06837133982745094,-0.6818446999862746,1.6055867194392155,8.697566373470588
9.910800708,0.3609467955333333,-0.9822100112803921,1.5425436511254902,8.619393764333333
9.920792708,0.6847032510627451,-1.288137377535294,1.3744214340470586,8.547641323156862
9.930784708,1.038007842690196,-1.5247671438490196,1.1693791549490196,8.496508479039216
9.940775708,1.3850122314745097,-1.6555545909078433,0.9998795516745098,8.429808563745098
9.950767708,1.665743819356863,-1.6447947281039217,0.9024782957921568,8.369311729686276
9.960759708,1.8681176212588235,-1.457680800515686,0.9665396452431372,8.196556668607844
9.970750708,1.9206181081607843,-1.1883644909078432,1.0172197792431372,7.967726466882354
9.980742708,1.9515337589843136,-1.0831858420058824,0.704134905007843,7.796077365098038
9.990734708,2.088590441611765,-1.2235926581823529,0.4522482511254901,7.699855076313725
10.00072671,2.2089461865333333,-1.4571296717117646,0.39067932892941165,7.645998950333333
10.01071771,2.266425032962745,-1.7193379568686273,0.3680224689294117,7.61262487872549
10.02070971,2.2412075482509803,-2.031111059790196,0.24231510581176466,7.511137726372549
10.03070171,2.1799731211980395,-2.381341838907843,0.05656855532156854,7.390497999117646
10.04069271,2.1992338724921567,-2.700667767339216,-0.09403930181568637,7.334364014019607
10.05068471,2.337149706017647,-2.9278654016333334,-0.16743125249411778,7.322809666764705
10.06067671,2.4710047543254903,-3.0353766424568627,-0.2063196133901962,7.351634338039215
10.07066771,2.5318293517666666,-3.033362643554902,-0.2783674683313726,7.331340853803922
10.08065971,2.5144520387980394,-2.9552151566725486,-0.31187902781764715,7.2501600508235295
10.09065171,2.4280836820137255,-2.847890992417647,-0.3011061119745099,7.143884110431372
10.10064371,2.302300912680392,-2.792503517319608,-0.2749344161117648,7.102504290117648
10.11063471,2.194833669307843,-2.8012173705745096,-0.24274126903333346,7.152095499901961
10.12062671,2.1116793671686276,-2.849611816527451,-0.1972157107000001,7.226546251039216
10.13061871,2.0629987888745096,-2.908611185537255,-0.1272548617352942,7.265505271705882
10.14060971,2.025775138854902,-2.966537957360784,-0.024208015941176563,7.300321858686274
10.15060171,2.0051945677960785,-2.9945879680666665,0.09851907729607833,7.346492370411765
10.16059371,1.9715902640313725,-2.9757981698705884,0.21775366302941168,7.431417573960784
10.17058471,1.9025878639999998,-2.9249789523607843,0.3233865947274509,7.536768184588236
10.18057671,1.8007089880588234,-2.845716665164706,0.39897592474705873,7.6403982974509805
10.19056871,1.6580737349411765,-2.7334071074784316,0.4355572409235293,7.730419032921568
10.20055971,1.4789014611764706,-2.603713238792157,0.4455996044921567,7.797987858745098
10.21055171,1.3077047035686276,-2.429946819084314,0.45000338337450974,7.893909419823529
10.22054371,1.144578771745098,-2.248232921190196,0.4664445843549018,8.003103067941176
10.23053471,0.9750370513333334,-2.083168453919608,0.5135018294137254,8.116929224980392
10.24052671,0.8171675886470589,-1.9221052478019607,0.6063426526490195,8.254412647745099
10.25051871,0.6790287583725491,-1.776762922998039,0.7431508458254901,8.394347976411765
10.26051071,0.588379047354902,-1.6501697754490197,0.9171601428254901,8.511840547509804
10.27050171,0.542758741217647,-1.5530302799196076,1.1088217252764705,8.594669615549021
10.28049371,0.5247388264137255,-1.4668434447823528,1.2817417891784313,8.666685886980392
10.29048571,0.5010494742372549,-1.3669863468411765,1.4120867166686275,8.75908601772549
10.30047671,0.4427134947862744,-1.24495612562549,1.5017839076686272,8.885469805078431
10.31046871,0.3490798693745098,-1.1071544503941178,1.5364787228960786,8.996651802490197
10.32046071,0.2516222881588235,-0.9747371091588235,1.502216957043137,9.00691709464706
10.33045171,0.16457428999803916,-0.8783574421,1.4137524250431373,8.975910188666667
10.34044371,0.09888426168431366,-0.8417592721843137,1.2963411659529414,8.983885751843138
10.35043571,0.06843060968431365,-0.8830690138117647,1.2008720020901962,9.035419128333332
10.36042671,0.12564503009607836,-1.0828703790862746,1.0581043783647057,9.261723985078431
10.37041871,0.22609332740980384,-1.5300339144784316,0.7514740278156862,9.76972645127451
10.38041071,0.16532423552745093,-1.9787202483411763,0.5518874532274509,10.183261422627451
10.39040271,0.0008702419490195377,-2.1246888557137256,0.4644974044235293,10.278138372627451
10.40039371,-0.24347130254117652,-2.0269301973686273,0.4725741748745097,10.21788400417647
10.41038571,-0.5658389066588236,-1.7866777598392154,0.5412879359921569,10.275575191470589
10.42037771,-0.9034297597960785,-1.4897980425843138,0.696871062835294,10.394313049431371
10.43036871,-1.296811580227451,-1.2168850992117646,0.8705782536784312,10.511754106490196
10.44036071,-1.7335540589137255,-1.0157122639,0.9876444152470588,10.603375671
10.45035271,-2.0890510582862745,-0.9919569528607843,1.024080009635294,10.687874416294116
10.46034371,-2.3080501739333332,-1.1561988887823529,0.9593981444784313,10.856890132509806
10.47033571,-2.3856261900509805,-1.334972416762745,0.9420365000470587,10.994830630058823
10.48032771,-2.4491359177764704,-1.36097404462549,1.245527113654902,11.10573325452941
10.49031871,-2.56636568242549,-1.2191147686058823,1.5518316941647061,11.203012364941179
10.50031071,-2.635136574270588,-1.005544804154902,1.7014962349098037,11.233987360862747
10.51030271,-2.615305312447059,-0.7610710323509804,1.8595249195568626,11.342726077784313
10.52029371,-2.537958280739216,-0.4952393193705882,2.0729356104392154,11.539714653313727
10.53028571,-2.4840726730137255,-0.20984166484117642,2.242842329047059,11.671966513509803
10.54027771,-2.4963401830529413,0.08058296710000004,2.273331912752941,11.642997674490195
10.55026971,-2.5686163201705883,0.3253269490411765,2.1914550831960784,11.575350098999998
10.56026071,-2.634074460519608,0.45212113762941186,2.1889920281588235,11.499023805392156
10.57025271,-2.6747015798470586,0.47683624047254913,2.339134031315686,11.520665994333335
10.58024471,-2.6636272171000006,0.42994315319803933,2.4848790229039217,11.60539320837255
10.59023571,-2.574494786888235,0.3468451843549021,2.5489188781156864,11.710766719784315
10.60022771,-2.440058247319608,0.28184766127647065,2.5611986902333332,11.798609427431373
10.61021971,-2.2927703990843136,0.277623334609804,2.5390417356254904,11.811939808882356
10.62021071,-2.170745371554902,0.34281479034313733,2.504423765409804,11.75485306245098
10.63020271,-2.0862743423764707,0.4327700986490196,2.4617553658803923,11.717542279490196
10.64019471,-2.038877262298039,0.5269739365215687,2.3922562620764705,11.710622290725489
10.65018571,-2.011911268062745,0.6095367017960784,2.275467770154902,11.70367122892157
10.66017771,-2.0025291927098037,0.6613648506196079,2.137245071037255,11.685550829607845
10.67016971,-1.9910901643568628,0.6651834263843137,1.9953397969196078,11.631947574078431
10.68016071,-1.9640928932392159,0.629872240090196,1.8579777405764706,11.545127978490195
10.69015271,-1.9271752876411765,0.556112331854902,1.748893128870784,11.428793102254904
10.70014471,-1.8654474387058824,0.45093770720784326,1.677933796164902,11.291150904588235
10.71013671,-1.7815508260921569,0.3155048536784314,1.6389596847139214,11.15318633817647
10.72012771,-1.6808323215098038,0.13554921352745106,1.6151483321060782,11.010599520882353
10.73011971,-1.5586140549803922,-0.03998338632803914,1.5961473921060783,10.876928556313725
10.74011171,-1.4387447611568627,-0.2082881856064705,1.5614034315962744,10.732241033941177
10.75010271,-1.3218586336274512,-0.3626208910966666,1.4897404423923528,10.564388679254902
10.76009471,-1.2266823694000002,-0.5155664077437254,1.3632391018433332,10.394394771235294
10.77008671,-1.1587795196431372,-0.6677251643123528,1.1919925339805881,10.263063055078433
10.78007771,-1.104710606001961,-0.814327208665294,1.0135296535884313,10.144233474803922
10.79006971,-1.0356249161117648,-0.9491768654888234,0.8666769815296078,10.010132296470587
10.80006171,-0.9430853677941177,-1.0850816466398039,0.770787150627647,9.852932779431374
10.81005271,-0.8086897128725491,-1.2331275290417647,0.7245695084021568,9.733992788941176
10.82004471,-0.6278096164607843,-1.3883238109633336,0.713802221927647,9.708713103490195
10.83003671,-0.4390037138137255,-1.5344599468849018,0.7299056258158824,9.785919611568627
10.84002771,-0.27363327092745104,-1.6582576782182352,0.7635675647962744,9.902426993333334
10.85001971,-0.16137266933921574,-1.7439701092515687,0.8233858478354902,9.970289918313725
10.86001171,-0.12221870439803922,-1.7518789843496079,0.8945880463452942,9.959638442039216
10.87000371,-0.20745519498627454,-1.584584744428039,1.0364387464041176,9.731776578333333
10.87999471,-0.3567588822803922,-1.1538962321339217,1.3278135622668628,9.202069067901961
10.88998671,-0.339081981182353,-0.7121674313888235,1.4911806974041175,8.772468652549021
10.89997871,-0.1975877792313726,-0.5681599916241177,1.5431598993060782,8.676218478235295
10.90996971,0.047599903219607796,-0.6697956291260785,1.526138425227647,8.743290492254902
10.91996171,0.3972415007882353,-0.9404219901456863,1.4875040026001962,8.711024999313725
10.92995371,0.7655402336901961,-1.2956567934790195,1.3934346506786275,8.63763414480392
10.93994471,1.1534493812784314,-1.5784175142633334,1.2777545629845097,8.514474471274509
10.94993671,1.5622277861411764,-1.7195093948103926,1.1742025521609805,8.355557238313725
10.95992871,1.909835051454902,-1.6830075663790196,1.1304825882433334,8.219201368509806
10.96991971,2.1259221906509804,-1.4795254248103924,1.212375159419804,8.014060413490196
10.97991171,2.185038145690196,-1.2709011271437254,1.25042217763549,7.83682916372549
10.98990371,2.206239794239216,-1.2446220890260784,0.9676583269492156,7.69183713582353
10.99989471,2.2461488167313726,-1.4164682602025487,0.6970293976943137,7.56913923427451
11.00988671,2.2165116080078433,-1.6619832491437254,0.621555315145294,7.545468077784313
11.01987871,2.1029092424,-1.9416950711633334,0.5771187462825489,7.528883176019607
11.02986971,1.9304604296745098,-2.2597918804966666,0.4054936342629411,7.417540314450981
11.03986171,1.792849455360784,-2.579085958810392,0.15442774585117636,7.288016490333334
11.04985371,1.7914581103999998,-2.852504732182941,-0.044672655750784405,7.250413065568627
11.05984571,1.891533292282353,-3.05486536637902,-0.09752337940960794,7.264976122156863
11.06983671,1.942827441262745,-3.151270761202549,-0.13373804936058833,7.319963613372549
11.07982871,1.9239738883411763,-3.143119983339804,-0.2646531004331374,7.270305729666667
11.08982071,1.8424329268784314,-3.0372740181633335,-0.37742435312921574,7.147946354137255
11.09981171,1.6936710529176473,-2.8782862755947063,-0.40112376595274524,7.0098117959607835
11.10980371,1.5309099758784313,-2.726210262869216,-0.3756291031488237,6.892999911352941
11.11979571,1.384802542917647,-2.6318384264790193,-0.33364765687431386,6.857366306470588
11.12978671,1.2766500918588235,-2.5983386961535295,-0.2891015501684315,6.908703273627451
11.13977871,1.2262971074058822,-2.595200277682941,-0.23847386338411783,6.953101542921568
11.14977071,1.228017452837255,-2.6081876086241174,-0.16197194495274522,6.970106481647058
11.15976171,1.252156404307843,-2.6262325518005887,-0.04826869624686287,6.978791064215687
11.16975371,1.2954073068960785,-2.6478536062123528,0.07848820916490183,6.9866664929999995
11.17974571,1.3250610913274512,-2.632990981486863,0.19950991181196065,7.0275170770980395
11.18973671,1.3276732546607843,-2.5916903202319608,0.3150476828609802,7.098187368627451
11.19972871,1.3159021388470586,-2.521181876643725,0.41172146468431364,7.199030726607843
11.20972071,1.277348671480392,-2.427099867231961,0.4823450984098038,7.3212127789411765
11.21971171,1.2219418375137254,-2.295371889800588,0.5272509120568627,7.45035151162745
11.22970371,1.156049223245098,-2.1199226872770587,0.559196773507843,7.581570765000001
11.23969571,1.0570856945,-1.941004618343137,0.5877435108999999,7.714423033882353
11.24968671,0.9456226789117647,-1.7690121292019607,0.6330740731745097,7.864104664686274
11.25967871,0.8357279582254903,-1.6092844729862747,0.7164066200843137,8.039106945843136
11.26967071,0.7522762327431373,-1.4529219352411764,0.8567662687313723,8.213541589156863
11.27966271,0.6932220260254902,-1.3002844292803921,1.0349726971235291,8.345129454137256
11.28965371,0.6453782702666666,-1.1586741185352942,1.2094884948490194,8.455945103431372
11.29964571,0.5885700536117647,-1.0368225125352941,1.3433976384960782,8.569287379235295
11.30963771,0.5204871612156863,-0.9242980754039215,1.413935472927451,8.687893247137255
11.31962871,0.44220052207843136,-0.8163039233745097,1.4124731186882353,8.739370659941176
11.32962071,0.3494895872823529,-0.7155986122764707,1.3327634908294117,8.716757806254902
11.33961271,0.23413554204705878,-0.6528181240745098,1.1722293144117646,8.715842463882353
11.34960371,0.11530852300784313,-0.6526015478,0.9927733703725488,8.754093968392155
11.35959571,0.06480804755686272,-0.7606292353098039,0.8743977907647057,8.850377205058823
11.36958771,0.12461327743921564,-1.0756411682313725,0.6918994371960783,9.193192898392155
11.37957871,0.14049565657647056,-1.5409171307019607,0.4562719867450979,9.68385993837255
11.38957071,0.06374501792941174,-1.8514261916235293,0.31567950421568614,9.98589620292157
11.39956271,-0.09785150585490199,-1.8765625806235295,0.28104238725490177,9.98786825480392
11.40955371,-0.3556982726,-1.6948319780156862,0.35456520807843117,9.937820343568628
11.41954571,-0.6818899672666666,-1.3655077465647059,0.46293975015490185,10.021693050235294
11.42953771,-1.0133336081098039,-0.9716429919568627,0.5971363761745095,10.127164566117647
11.43952871,-1.3047493316392158,-0.639199179152941,0.7535218327235294,10.154773430235293
11.44952071,-1.5472615689529412,-0.42036009378039213,0.9134322774764704,10.164884053372548
11.45951271,-1.7461188553843137,-0.32328181056470584,1.1263786650254901,10.212167432411764
11.46950371,-1.9675477127176473,-0.414862862662745,1.2084572005745098,10.302095753392159
11.47949571,-2.1462612781490193,-0.7418359516823528,1.0376531866137253,10.641827536450979
11.48948771,-2.1780354492862743,-1.1065711162117646,1.0429532003392155,10.968522594843138
11.49947971,-2.2788899360313724,-1.1596631693490196,1.3211898845549017,11.121479910784315
11.50947071,-2.388736314011765,-0.9560491328588234,1.5124023435156861,11.199095351941178
11.51946271,-2.428521417090196,-0.6723608143686274,1.6065130272215686,11.27397707109804
11.52945471,-2.3837672870901963,-0.3436832504862744,1.691813722535294,11.34839257345098
11.53944571,-2.2678110101686273,0.02546304198431378,1.854346368280392,11.46726834835294
11.54943771,-2.180030218305882,0.3773999583764706,2.0668633064960784,11.57491818835294
11.55942971,-2.194900753972549,0.662384191827451,2.25562858245098,11.615900147235294
11.56942071,-2.2737641980117647,0.8654326076313726,2.361087771588235,11.590357889313726
11.57941271,-2.3256560012274514,0.9430093718666667,2.4387331804117647,11.55097522609804
11.58940471,-2.3177079469137256,0.9052718203960786,2.538878210719608,11.60790630864706
11.59939571,-2.247713128572549,0.7534624291411766,2.5847196362,11.745325296333334
11.60938771,-2.100482497082353,0.5847944948078432,2.5680862108862748,11.883541671568626
11.61937971,-1.9380938188862746,0.4719187661411765,2.523499824317647,11.964109251843137
11.62937071,-1.8053828385333333,0.4292632362411765,2.4755188338274507,11.958112987509804
11.63936271,-1.7171129586313725,0.42153416877058825,2.420783372003921,11.899593395392158
11.64935471,-1.6846663849254901,0.41379676614313726,2.3425764570805883,11.847983989705883
11.65934571,-1.6828333802784317,0.40957932998627455,2.241462325315882,11.8157616597451
11.66933771,-1.6846910980235295,0.41001973996666674,2.1214600216688235,11.783206777450982
11.67932971,-1.6975987004745097,0.4103289201039216,2.001675704517843,11.742332896921571
11.68932071,-1.6906864302470588,0.37975762441764715,1.8972616310139216,11.673295412058824
11.69931271,-1.6578935179333334,0.32766177630000004,1.8105549210903922,11.58735024801961
11.70930471,-1.6127935165333331,0.2541007422019608,1.7416925833845096,11.487918007647059
11.71929571,-1.5544268277196078,0.14662092731960788,1.676107885208039,11.359734073509804
11.72928771,-1.4779526506019607,0.007373602535294173,1.6041326045217645,11.209889066666666
11.73927971,-1.3875679359745097,-0.15530469628039212,1.5251105117570587,11.045719977313727
11.74927171,-1.2834187467000002,-0.32430057911372545,1.4452466377962745,10.875419697431372
11.75926271,-1.1730018352490197,-0.4809970731333333,1.35637182473549,10.704574005176472
11.76925471,-1.072961842719608,-0.6348630790941177,1.2380856444845096,10.527219212215687
11.77924671,-0.9755374502098039,-0.7858285221333333,1.0841352666413724,10.369795653117649
11.78923771,-0.8938100915450982,-0.9360780481529412,0.9172257047590194,10.228356495156863
11.79922971,-0.8250428284058824,-1.0819003949568629,0.7621700254452941,10.095693675470589
11.80922171,-0.747737610027451,-1.2179775313980392,0.6378602557394117,9.970395999058823
11.81921271,-0.6549282299098039,-1.3447584204313725,0.5688348552296077,9.863656526921568
11.82920471,-0.5584427110470589,-1.4536338854411763,0.5693426371825488,9.830075542274509
11.83919671,-0.45575006321176476,-1.5341159362196077,0.6449363296864704,9.857559326568628
11.84918771,-0.3424804127803922,-1.570768932382353,0.8023206511609803,9.84956962
11.85917971,-0.24522939019215692,-1.555658339852941,0.9913570717296076,9.784171640215687
11.86917171,-0.22701171338823536,-1.4400457817941175,1.1417559425139214,9.648818643843137
11.87916271,-0.3120446061529412,-1.121314927990196,1.367077354455098,9.272855866941176
11.88915471,-0.3410536404862746,-0.6648196260686273,1.626777473592353,8.772593870862744
11.89914671,-0.26592551246666674,-0.3751181228137255,1.7665673053962745,8.484295538882353
11.90913771,-0.09834162330980396,-0.3654298367941176,1.7952444815531372,8.498310483000001
11.91912971,0.170789512945098,-0.5466491978333333,1.7298576141609803,8.552103961294117
11.92912171,0.5196491429254902,-0.8710660790098038,1.6430389013786275,8.473060750901961
11.93911271,0.8841422670235293,-1.2655896543039216,1.5376849592609803,8.384317102078432
11.94910471,1.2092437999254901,-1.5846288972058822,1.397883306962941,8.366253702862744
11.95909671,1.4817043751607843,-1.7819854154607842,1.231081838308039,8.357058757372549
11.96908771,1.709624427219608,-1.8735055991862746,0.9994763320923529,8.326457775137255
11.97907971,1.9506079157490197,-1.7871344391470587,0.8983182057394117,8.258143020960786
11.98907171,2.1392105846509804,-1.464003647264706,1.0455448818374509,7.934867888960785
11.99906271,2.165753997160784,-1.1046686042254903,1.0102855007394118,7.620475790117648
12.00905471,2.238484374082353,-1.0605362740294118,0.7028154210923528,7.476711487156863
12.01904671,2.317001445117647,-1.2688562987156864,0.521633780327647,7.399550446294118
12.02903771,2.3485197489803924,-1.5515934815980392,0.5040167845433332,7.361001285470588
12.03902971,2.3047909454509803,-1.8808761176568627,0.4675817290335293,7.320821847039216
12.04902171,2.1768893114117644,-2.261118166794118,0.29418637828843125,7.207666520568628
12.05901371,2.0864877745686274,-2.622863924990196,0.03653359007274496,7.094840368411764
12.06900471,2.123388669745098,-2.9021090818921564,-0.19109477763313742,7.045022143019607
12.07899671,2.2238737013137255,-3.091633850970588,-0.3078106594566668,7.05850296954902
12.08898871,2.2907770412078428,-3.158161647715686,-0.3702495470252942,7.08095258682353
12.09897971,2.296084269364706,-3.1136722590098045,-0.4540888970507844,7.013293383196078
12.10897171,2.2502272961019605,-2.962059987715686,-0.4909532241880394,6.865980068117647
12.11896371,2.1250020989254903,-2.8023203160098045,-0.468393382109608,6.7236034918431375
12.12895471,1.9756295778666666,-2.7033275855980388,-0.4143159441488237,6.648358350666666
12.13894671,1.859319621807843,-2.677540344180392,-0.3540636601488237,6.657287941960783
12.14893871,1.7807680436117648,-2.6976321567980395,-0.29199303252137276,6.708229280843138
12.15892971,1.7479295230235294,-2.723116007994118,-0.20763174540196094,6.747729396490195
12.16892171,1.737068824415686,-2.737958534327451,-0.0987465092450982,6.776493238352941
12.17891371,1.7403607466313726,-2.752845728817647,0.030363199676470415,6.8063155736078444
12.18890471,1.748406945317647,-2.7904565791509808,0.16221231765098024,6.838210861078432
12.19889671,1.7374356583843138,-2.8004848979549024,0.2874370214686273,6.897835053529413
12.20888871,1.6965724018352941,-2.78316197124902,0.39811182378431353,6.977118222784314
12.21887971,1.6384852185333332,-2.7394757492098036,0.49707495123529394,7.076631456019607
12.22887171,1.5690510374647058,-2.655549092229412,0.5890789863137252,7.206717568294118
12.23886371,1.4788343729549018,-2.5283444635039216,0.6880535445098038,7.3676622514117645
12.24885471,1.3711184308764706,-2.366936271649019,0.793209286098039,7.550747810764706
12.25884671,1.252854131817647,-2.1884208924235296,0.8974082970588233,7.745682118098038
12.26883871,1.1331108712882354,-2.006604175207843,1.0087566197862743,7.950811246235294
12.27882971,1.0292156031117647,-1.8163716177764706,1.1436550148607842,8.167452236254903
12.28882171,0.9333601676019608,-1.612440857207843,1.3020011345274507,8.372066194372549
12.29881371,0.8510928415058824,-1.3955280280705884,1.4697335945666665,8.572118183313725
12.30880471,0.7781367591901962,-1.172454927972549,1.6247491745862743,8.773523817509803
12.31879671,0.7001497497333334,-0.9536295778254902,1.7463586599784315,8.971630276647058
12.32878871,0.6279587153803923,-0.7510314434784313,1.8043801566843136,9.14114228647059
12.33877971,0.573387505845098,-0.5839341171745098,1.763691632980392,9.233677341941178
12.34877171,0.5131482175705883,-0.4804532703960784,1.634195858790196,9.272113910411765
12.35876371,0.39595321374705883,-0.4536644811784313,1.4470826648843136,9.308004220117647
12.36875571,0.30058145188431373,-0.5653439383156862,1.2674223807862746,9.413458210294118
12.37874671,0.34879345325686273,-1.0040965636294117,0.9062229702568624,9.933801867058824
12.38873871,0.4230358026294117,-1.7016404529235292,0.5388110536098036,10.691258055725491
12.39873071,0.4268894846294118,-2.1596846477862743,0.36697277898235275,11.153452146705883
12.40872171,0.32518131121372545,-2.1984988780411765,0.30540006182549,11.184808512215687
12.41871371,0.08099167970392156,-2.0076439476490195,0.3688427586686272,11.131417723607843
12.42870571,-0.25281993441372547,-1.690301887805882,0.5033140261196076,11.216873525960786
12.43869671,-0.5926893442176471,-1.362486283688235,0.7415941175509803,11.33797359145098
12.44868871,-0.9334840586882353,-1.115634483688235,0.9749692921784311,11.386470236941179
12.45868071,-1.2340316884529412,-0.9664349570999998,1.1525251432999997,11.369691083411766
12.46867171,-1.4371784062764708,-0.9532657548254901,1.2925693174647057,11.365655236352941
12.47866371,-1.5907503345509804,-1.1088171461392156,1.2393224277588235,11.490900788588236
12.48865571,-1.668177561962745,-1.3533250151980392,1.282480955798039,11.683019960411764
12.49864671,-1.8738499559235293,-1.4320967783156862,1.4403695709549018,11.754009257117646
12.50863871,-2.1925536030607846,-1.3042002863941176,1.4916740156313721,11.84838687929412
12.51863071,-2.380950604747059,-1.0851545993941174,1.7064261151019604,11.947195357745098
12.52862171,-2.4058040400960783,-0.787892038570588,1.9595931945921568,12.115668195666666
12.53861371,-2.3395866674490193,-0.46078655023725473,2.2102043529450977,12.356591664137254
12.54860571,-2.2813458371039217,-0.15361669649215676,2.4195947964941174,12.535253364333334
12.55859671,-2.275878140143137,0.12976589286078447,2.51198901292549,12.552661760411766
12.56858871,-2.294007501064706,0.35816483184117665,2.5397753199254898,12.474565804450979
12.57858071,-2.2934331955745098,0.4597041278607845,2.618929439356863,12.387581957137257
12.58857171,-2.2644485905705882,0.42346908150784324,2.7626065000627453,12.42210456364706
12.59856371,-2.192449046817647,0.306607649801961,2.852213042003921,12.548886960803921
12.60855571,-2.0690677003078433,0.1744989728411766,2.875734223656863,12.695060806333334
12.61854671,-1.9247398903666666,0.11471761327254917,2.8819341926568627,12.776238104882353
12.62853871,-1.797612307307843,0.14473156613529425,2.8649667881274508,12.766886625529413
12.63853071,-1.7212440622294116,0.22280407105686287,2.813732682029411,12.716350316117646
12.64852271,-1.7043344620333334,0.29596955820784326,2.7305625028490197,12.68335613319608
12.65851371,-1.7031712501901959,0.3506969399823531,2.6337350852392154,12.669262702490197
12.66850571,-1.7053115088372548,0.3837110303941178,2.530734959839215,12.654229551568628
12.67849771,-1.7007551978960784,0.3931036995117648,2.4299416696509804,12.622127841313727
12.68848871,-1.6870344856607844,0.39976530617843153,2.323089741098039,12.575432717980393
12.69848071,-1.6611404236333334,0.4247528433941178,2.2062122023970585,12.5235525247451
12.70847271,-1.6175911238921568,0.4211493075901962,2.0885792478617646,12.451915587058824
12.71846371,-1.5571864998529412,0.3817807269039217,1.986661075195098,12.358447542686273
12.72845571,-1.493327048445098,0.29775394496274515,1.8967120268617645,12.233605058803922
12.73844771,-1.420056294215686,0.1890907797450981,1.8105529029401959,12.095309811705883
12.74843871,-1.3363441583862745,0.057313651309804016,1.7168020179205878,11.934063143960785
12.75843071,-1.235762429935294,-0.08232731719999992,1.6099123017441173,11.753934599882355
12.76842271,-1.1337526566215685,-0.22113156063137246,1.4853841858303918,11.565225949294117
12.77841371,-1.0446028452843137,-0.3704577196117646,1.3398817834774508,11.37246746945098
12.78840571,-0.9696295509644116,-0.5504994515137254,1.1765440333990194,11.171618728
12.79839771,-0.9037585857212744,-0.771599586317647,1.0078821297715683,10.964007231568628
12.80838871,-0.8343781331075489,-1.0174772746294118,0.8409449025166664,10.755076627627451
12.81838071,-0.7501852844957843,-1.2591853592882352,0.6915964897715684,10.545905660607842
12.82837271,-0.6484600928879412,-1.486052901052941,0.5811054734774507,10.349352120568629
12.83836371,-0.5302439272997058,-1.6937960577776472,0.5227472774578429,10.223087432156863
12.84835571,-0.4097942657840196,-1.8728754410717645,0.5468076927950979,10.197254494921568
12.85834771,-0.29368149558794115,-2.0137638155815685,0.6627479443284311,10.221033459823529
12.86833871,-0.14812537480362736,-2.0971879101129414,0.849631193610784,10.230109342568626
12.87833033,-0.03284575833303918,-2.028936698152157,1.0496558450911764,10.159528118058825
12.88832233,-0.056880508980098,-1.6075939510541177,1.4288452923068624,9.665554934333334
12.89831433,-0.10390268221539209,-0.9088550628580393,1.7762084135029408,8.932234060960784
12.90830533,-0.07511798605852935,-0.4285271291521569,1.9125597385617645,8.489307738509803
12.91829733,0.07391477629833339,-0.36102093272078434,1.9690545043264704,8.47441660027451
12.92828933,0.37359434676892156,-0.5579066927992157,1.9506117383852941,8.557562513529412
12.93828033,0.7434425458669608,-0.9151848228188235,1.8877336647343135,8.504774831568627
12.94827233,1.0793771464159803,-1.2712194565639214,1.7059146086754897,8.386317081960785
12.95826433,1.3638258322395098,-1.5101303937600001,1.4823814244401958,8.292468865333333
12.96825533,1.5794667772787256,-1.6537696424658825,1.2743613275382353,8.260317846235294
12.97824733,1.706281287808137,-1.6934564377992156,1.0978064738715685,8.255784377705883
12.98823933,1.791448468866961,-1.5509576369364706,1.1234872615774507,8.119288964019608
12.99823033,1.790868250219902,-1.2844312977207843,1.0392162379892154,7.8979977507058825
13.00822233,1.9011731416199018,-1.1843593203482352,0.834677447165686,7.802481715490195
13.01821433,2.1244075446414707,-1.3067373591913725,0.8173857400186273,7.660593269490196
13.02820533,2.243634765445392,-1.5181785587796077,0.7770782340970587,7.56997007227451
13.03819733,2.2158100559944116,-1.8194873355050982,0.7255796045872547,7.50608745482353
13.04818933,2.0870054628179413,-2.1738042635443136,0.5175116637245096,7.330963048745097
13.05818033,1.974819992217941,-2.494580175367843,0.1865604501166665,7.117614742078431
13.06817233,1.9753366453159802,-2.7365837737207848,-0.09636668709901974,7.015249758039216
13.07816433,2.0382026633748036,-2.886827372250196,-0.26018848917745113,7.018559634274509
13.08815533,2.0513749669630394,-2.929702149818824,-0.3662578008637256,7.060189607862745
13.09814733,1.9949116414493138,-2.866188833505098,-0.47174486172647073,6.994947295784314
13.10813933,1.8913368494100982,-2.727745225642353,-0.5235390651578433,6.853180180352941
13.11813033,1.7523129857238235,-2.572455457132549,-0.5130671719813727,6.698580168647059
13.12812233,1.6032760289199022,-2.4900531577992155,-0.48583562243235306,6.615048395490196
13.13811433,1.4901568410963726,-2.4866670581521566,-0.45498769611862755,6.60691649935294
13.14810533,1.4218947974493137,-2.5137752543776473,-0.41937532090294133,6.629849288627452
13.15809733,1.4038536607042158,-2.5400673512796073,-0.36133943258529416,6.648032095274511
13.16808933,1.4195385845081374,-2.559167120691373,-0.2859095509754903,6.6505390647058835
13.17808133,1.4437731494100983,-2.5653609730443137,-0.19861153849705895,6.659003338313726
13.18807233,1.463588858802255,-2.5632871949462745,-0.09741648154411776,6.691069715254902
13.19806433,1.471207052766961,-2.5700277963580396,0.01601855194999989,6.738836264294118
13.20805633,1.4606431376140194,-2.564644115848235,0.13872092637647046,6.808539510666667
13.21804733,1.426864166902255,-2.534959716671765,0.26454828357843124,6.900265681431372
13.22803933,1.3833147682591176,-2.4677777426129412,0.3757314153039214,7.01614447790196
13.23803133,1.341407674792451,-2.3445001383188235,0.4651989740882352,7.164671334666667
13.24802233,1.287931144288529,-2.1853757542580388,0.5386166940882352,7.328790269745098
13.25801433,1.2220499550081372,-2.0081808368423526,0.6072763971078431,7.506452780627451
13.26800633,1.1375901466159803,-1.8382785324894115,0.6834040722450979,7.689764142352942
13.27799733,1.0469806323414705,-1.6881319862541175,0.7764806801588233,7.868759542156863
13.28798933,0.9612842438865686,-1.5463796455090195,0.890635110335294,8.040046630431371
13.29798133,0.8836999499392157,-1.3856697257639214,1.0204655057666665,8.21163961109804
13.30797233,0.8143551309509804,-1.198333684097255,1.1603465884725488,8.38010569027451
13.31796433,0.743814894572549,-1.001811861667843,1.3059292682372547,8.537982734411765
13.32795633,0.6514852612941177,-0.8233502309698039,1.446707508727451,8.690980504372549
13.33794733,0.5279978222156864,-0.6671686244207842,1.5556678042176468,8.831886966764706
13.34793933,0.3860521736470588,-0.5308419494607841,1.6241358303549018,8.900092766529411
13.35793133,0.22899708049019607,-0.4264917363627449,1.6321715327096078,8.849425399882353
13.36792233,0.0634311714862745,-0.3601414083607841,1.5448750651566665,8.757992521313726
13.37791433,-0.08332278580784315,-0.35684767177254884,1.3777371981488236,8.748528873666666
13.38790633,-0.18325567396470588,-0.4922244378117645,1.1948631180801959,8.858183246607844
13.39789733,-0.15677973370980394,-0.8784002413803921,0.8491889938056862,9.30658497209804
13.40788933,-0.11555430663137255,-1.417155457027451,0.49023352692333316,9.908014005666667
13.41788133,-0.21247343380784314,-1.7183055334784314,0.31824876519784295,10.19659550145098
13.42787333,-0.43328797233725486,-1.6944950178313725,0.25552678355078423,10.167734940313727
13.43786433,-0.7676833793568627,-1.46642821212549,0.26716819435470573,10.131017884333332
13.44785633,-1.1549819285529412,-1.1078836668117644,0.2792014087488234,10.19320287864706
13.45784833,-1.5010725923568629,-0.7421162395372548,0.4192938740233332,10.305301697862745
13.46783933,-1.7921872760039217,-0.46006918863529395,0.6771960288468626,10.444213688803922
13.47783133,-2.051479910121569,-0.25269006122352927,0.9287083349645096,10.539161756529412
13.48782333,-2.2617315166313725,-0.13690545739999985,1.0921596241998037,10.544993398588236
13.49781433,-2.41257520574902,-0.22566976806666653,0.9934520773958821,10.683264641686275
13.50780633,-2.3601580760627447,-0.5508928427725489,0.9235849931213724,11.00356027735294
13.51779833,-2.3191428506588236,-0.8253667747921567,1.2779829568076468,11.306511115117647
13.52778933,-2.384522609660784,-0.8722036600862745,1.3991026060429412,11.387724801666668
13.53778133,-2.3307228485039215,-0.7790538573745096,1.4566869603174508,11.40306309254902
