Time (s),Linear Acceleration x (m/s^2),Linear Acceleration y (m/s^2),Linear Acceleration z (m/s^2),Absolute acceleration (m/s^2)
0.007689958322,-0.42090010245060794,-1.156214137498039,0.36300129309411755,8.696651038584314
0.01770695834,-0.42090010245060794,-1.156214137498039,0.36300129309411755,8.696651038584314
0.02772295836,-0.42090010245060794,-1.156214137498039,0.36300129309411755,8.696651038584314
0.03773995832,-0.42090010245060794,-1.156214137498039,0.36300129309411755,8.696651038584314
0.04775695835,-0.42090010245060794,-1.156214137498039,0.36300129309411755,8.696651038584314
0.05777295836,-0.42090010245060794,-1.156214137498039,0.36300129309411755,8.696651038584314
0.06778995832,-0.42090010245060794,-1.156214137498039,0.36300129309411755,8.696651038584314
0.07780595834,-0.42090010245060794,-1.156214137498039,0.36300129309411755,8.696651038584314
0.08782295836,-0.42090010245060794,-1.156214137498039,0.36300129309411755,8.696651038584314
0.09783995833,-0.42090010245060794,-1.156214137498039,0.36300129309411755,8.696651038584314
0.1078559583,-0.42090010245060794,-1.156214137498039,0.36300129309411755,8.696651038584314
0.1178729584,-0.42090010245060794,-1.156214137498039,0.36300129309411755,8.696651038584314
0.1278899583,-0.42090010245060794,-1.156214137498039,0.36300129309411755,8.696651038584314
0.1379059583,-0.42090010245060794,-1.156214137498039,0.36300129309411755,8.696651038584314
0.1479229583,-0.42090010245060794,-1.156214137498039,0.36300129309411755,8.696651038584314
0.1579399583,-0.42090010245060794,-1.156214137498039,0.36300129309411755,8.696651038584314
0.1679559583,-0.42090010245060794,-1.156214137498039,0.36300129309411755,8.696651038584314
0.1779729583,-0.42090010245060794,-1.156214137498039,0.36300129309411755,8.696651038584314
0.1879889583,-0.42090010245060794,-1.156214137498039,0.36300129309411755,8.696651038584314
0.1980059583,-0.42090010245060794,-1.156214137498039,0.36300129309411755,8.696651038584314
0.2080229583,-0.42090010245060794,-1.156214137498039,0.36300129309411755,8.696651038584314
0.2180389583,-0.42090010245060794,-1.156214137498039,0.36300129309411755,8.696651038584314
0.2280559583,-0.42090010245060794,-1.156214137498039,0.36300129309411755,8.696651038584314
0.2380729583,-0.42090010245060794,-1.156214137498039,0.36300129309411755,8.696651038584314
0.2480889583,-0.42090010245060794,-1.156214137498039,0.36300129309411755,8.696651038584314
0.2581059583,-0.42090010245060794,-1.156214137498039,0.36300129309411755,8.696651038584314
0.2681229583,-0.42090010245060794,-1.156214137498039,0.36300129309411755,8.696651038584314
0.2781389583,-0.42090010245060794,-1.156214137498039,0.36300129309411755,8.696651038584314
0.2881559583,-0.42090010245060794,-1.156214137498039,0.36300129309411755,8.696651038584314
0.2981719584,-0.42090010245060794,-1.156214137498039,0.36300129309411755,8.696651038584314
0.3081889583,-0.42090010245060794,-1.156214137498039,0.36300129309411755,8.696651038584314
0.3182059583,-0.42090010245060794,-1.156214137498039,0.36300129309411755,8.696651038584314
0.3282219583,-0.42090010245060794,-1.156214137498039,0.36300129309411755,8.696651038584314
0.3382389583,-0.42090010245060794,-1.156214137498039,0.36300129309411755,8.696651038584314
0.3482559583,-0.42090010245060794,-1.156214137498039,0.36300129309411755,8.696651038584314
0.3582719583,-0.42090010245060794,-1.156214137498039,0.36300129309411755,8.696651038584314
0.3682889583,-0.42090010245060794,-1.156214137498039,0.36300129309411755,8.696651038584314
0.3783059584,-0.42090010245060794,-1.156214137498039,0.36300129309411755,8.696651038584314
0.3883219583,-0.42090010245060794,-1.156214137498039,0.36300129309411755,8.696651038584314
0.3983389583,-0.42090010245060794,-1.156214137498039,0.36300129309411755,8.696651038584314
0.4083549583,-0.42090010245060794,-1.156214137498039,0.36300129309411755,8.696651038584314
0.4183719583,-0.42090010245060794,-1.156214137498039,0.36300129309411755,8.696651038584314
0.4283889583,-0.42090010245060794,-1.156214137498039,0.36300129309411755,8.696651038584314
0.4384049583,-0.42090010245060794,-1.156214137498039,0.36300129309411755,8.696651038584314
0.4484219583,-0.42090010245060794,-1.156214137498039,0.36300129309411755,8.696651038584314
0.4584389583,-0.42090010245060794,-1.156214137498039,0.36300129309411755,8.696651038584314
0.4684549583,-0.42090010245060794,-1.156214137498039,0.36300129309411755,8.696651038584314
0.4784719583,-0.42090010245060794,-1.156214137498039,0.36300129309411755,8.696651038584314
0.4884889583,-0.42090010245060794,-1.156214137498039,0.36300129309411755,8.696651038584314
0.4985049583,-0.42090010245060794,-1.156214137498039,0.36300129309411755,8.696651038584314
0.5085219583,-0.42090010245060794,-1.156214137498039,0.36300129309411755,8.696651038584314
0.5185389583,-0.5139342965486471,-1.1851832273019607,0.5349908930156863,8.694810918466667
0.5285549583,-0.6534308703525687,-1.223448644772549,0.6611969663686275,8.669786876878431
0.5385719583,-0.7967517209800197,-1.2825896081058823,0.7349026387882353,8.61761353252549
0.5485879583,-0.9044109622702157,-1.3426188781647057,0.7853048580823528,8.552170676211764
0.5586049584,-0.9288509851525688,-1.351055240909804,0.8269985897941177,8.55166773007451
0.5686219583,-0.8768471934172746,-1.2964562456411761,0.8785379492156862,8.615663997882352
0.5786379583,-0.7614662194760982,-1.1766584684254902,0.9616167713921567,8.564142436588234
0.5886549584,-0.6071474441231569,-1.0359311330999998,1.0452972720705882,8.45819514619608
0.5986719583,-0.4428719382211962,-0.9228418205431372,1.071123815952941,8.393274126607844
0.6086879583,-0.29735963141727456,-0.8440483883078431,1.029062752972549,8.385816745352942
0.6187049584,-0.21730654270943145,-0.8207821452490195,0.9413339153392156,8.434439484019608
0.6287219583,-0.19259414563100005,-0.8577309417215685,0.8179626122803921,8.48056950864706
0.6387379583,-0.20516747649374514,-0.8909084446156862,0.6571870776921568,8.431521010058823
0.6487549584,-0.2384215048270785,-0.9247326036901959,0.514611380182353,8.35240728582353
0.6587709583,-0.25277429104080396,-0.9441640707529412,0.4660350858294117,8.335347358764706
0.6687879583,-0.25943302140354907,-0.9142460351686273,0.4658200000254901,8.33343502980392
0.6788049584,-0.2732628014035491,-0.8742268313647057,0.4409386642784313,8.33443277817647
0.6888209583,-0.2764030234898236,-0.8982392593960783,0.38069453771176465,8.36651723627451
0.6988379583,-0.282079320585902,-1.00810879692549,0.30760486372352935,8.341564793235293
0.7088549584,-0.28866446488590203,-1.1630360610627448,0.24409651181764697,8.278385779882353
0.7188709583,-0.3005515017545295,-1.330232629515686,0.19970808503529405,8.185396865568627
0.7288879583,-0.31756105638590204,-1.477450420062745,0.192941824662745,8.07414451609804
0.7389049584,-0.3293550351035491,-1.5803832107490194,0.2190666568196078,7.970920627627452
0.7489209583,-0.3293060661055099,-1.6629153641215686,0.250222616745098,7.882821385686275
0.7589379583,-0.3388446831015883,-1.7453239807490195,0.30477700693921567,7.790292937137255
0.7689549584,-0.37584777627609806,-1.8137514346725492,0.5096165395666665,7.664147640764706
0.7789709583,-0.45314559677805893,-1.8752409608509804,0.9313627043117646,7.401597861313725
0.7889879583,-0.5665078654055099,-2.0061100166941177,1.1644558281745099,7.322745756588236
0.7990039584,-0.6590715908172746,-1.8297800401254902,1.2459504561803922,7.159674942705881
0.8090209583,-0.4922469625623726,-1.1419112861843135,1.2045442813470588,6.452787859098039
0.8190379583,-0.1670561393074706,-0.35691388287058823,0.9587117542882354,5.586349786509803
0.8290539584,0.02334774145723529,0.32743601663921573,0.7101223222568627,4.847488718078432
0.8390709583,0.019765668359196065,0.7281265584450982,0.698328304845098,4.545896832098039
0.8490879583,-0.07239322048080392,0.957115378327451,0.7727367208647058,4.584755954294118
0.8591039584,-0.21285037716707841,1.0858627089215687,0.8116097385588236,4.7326441315098045
0.8691209583,-0.42335268593178427,1.1416428761568627,0.8111213183431372,4.811055605588235
0.8791379583,-0.6478865523631568,1.1400751230000001,0.8271209628137255,4.8451686599411765
0.8891539584,-0.7947465105200197,1.1046937472019607,0.9816091641078432,4.923196538137255
0.8991709583,-0.8646655404239411,1.0710378503490197,1.1056246755666665,5.046210285235294
0.9091880833,-0.9446406089337451,1.0301615593843139,1.1455616113509806,5.084327563568627
0.9192040833,-1.010765996835706,0.9731403836980393,1.1430000837431373,5.081932146470588
0.9292210834,-1.0440654800925686,0.9217004212078432,1.1204935774294118,5.062543993294118
0.9392370833,-1.0705121226333332,0.8724115117803922,1.1048998271745099,5.044817877039216
0.9492540833,-1.0845305556019607,0.8212835842333334,1.0907624520960786,5.02559491554902
0.9592710834,-1.0819895993058821,0.766731745045098,1.0900044408411764,5.012648225980392
0.9692870833,-1.0789668582411764,0.6887229059705882,1.1081769565078432,5.001862971980392
0.9793040833,-1.0673860263000001,0.5955692280333333,1.1370667993313726,4.981357771882353
0.9893210834,-1.033111177298039,0.49065238535490197,1.1700392828019608,4.943375083078432
0.9993370833,-0.9814617210990196,0.3634503936098039,1.1934118133313725,4.886266823254902
1.009354083,-0.9035733461382353,0.21694769460980398,1.1835340201941176,4.806063319411765
1.019371083,-0.8151423381578432,0.0715522748058824,1.0963511147411766,4.68954987772549
1.029387083,-0.7312833110990197,-0.06275519607647054,0.9869701264039217,4.570049612294118
1.039404083,-0.6706028761950981,-0.1937342025078431,0.9483286297764707,4.491989217019607
1.049420083,-0.6115562980911765,-0.3039510761156863,0.9092571621686275,4.427125161235295
1.059437083,-0.578138119212745,-0.382538124545098,0.8458566397960784,4.3546781023725485
1.069454083,-0.5801577259970588,-0.44966310544117644,0.7662100529529413,4.294435123549019
1.079470083,-0.6010872755068627,-0.48725033760588227,0.663126444227451,4.283786472196079
1.089487083,-0.6277431208009804,-0.5015002085274509,0.5754866677176471,4.28990742127451
1.099504083,-0.659566600585294,-0.49884130759803913,0.5483940181960785,4.275375335588235
1.109520083,-0.6966549276833333,-0.46556370266470587,0.5844976627058824,4.231417235352941
1.119537083,-0.7277333432127451,-0.39176720923333325,0.6627190881960784,4.163334603333333
1.129554083,-0.7385876614676471,-0.2916562045666667,0.7459820962431373,4.098826612470588
1.139570083,-0.7264697598990196,-0.20584947284117638,0.8109002276,4.069194570372549
1.149587083,-0.6894659652127452,-0.14807920003725486,0.8502994789470588,4.084929885686274
1.159604083,-0.6361156528794117,-0.10183204657058818,0.8678977636313726,4.126464376627451
1.169620083,-0.5948432660774511,-0.07517956627254897,0.8732912840666668,4.16564854872549
1.179637083,-0.5731929426343138,-0.06887460535098035,0.8798893882588235,4.178715706980393
1.189653083,-0.5601760560264706,-0.06525556867647055,0.9067865487352942,4.165554727882353
1.199670083,-0.544596646504902,-0.04685090708431368,0.9473182810627452,4.138426411372549
1.209687083,-0.5229985431323529,-0.009811616354901917,0.9913537223294119,4.101895954921568
1.219703083,-0.48868446905980395,0.030932424356862786,1.0273047631137255,4.073515675156862
1.229720083,-0.4622259615460784,0.053337326688235334,1.0457605477019607,4.056593272862745
1.239737083,-0.44121660901470583,0.06422205620784317,1.0372936074666668,4.067498923647059
1.249753083,-0.42065800945196075,0.04797373309019612,1.0132034573098039,4.080157736490196
1.259770083,-0.39504144081078435,0.01006312696470592,0.9877048390313726,4.075612102411765
1.269787083,-0.3585987280088236,-0.0279072010078431,0.9504078408568628,4.075573389215686
1.279803083,-0.29632534532254906,-0.04895637479803918,0.8654074172294118,4.070039296215686
1.289820083,-0.19720630932254904,-0.03818809659215683,0.755951696327451,4.0320801353333335
1.299836083,-0.07136583887156865,0.013707501582352974,0.6700610427392157,3.9699970149803923
1.309853083,0.05279769312843135,0.10294270807254904,0.6429275659098038,3.890335601294118
1.319870083,0.136823460422549,0.19156837099411766,0.6281655219,3.8233589477843135
1.329886083,0.2121062816970588,0.26448530562156863,0.6234139884686275,3.777415308941176
1.339903083,0.3192123391088235,0.3056379979156863,0.5845490365,3.7651647259215686
1.349920083,0.45508106816764704,0.2456422404431373,0.47280743836274514,3.7708071093333335
1.359936083,0.6165537628343136,0.09478763079607845,0.3221698922843138,3.712729304294118
1.369953083,0.8062407462852941,-0.08184285834117644,0.2018584715588236,3.648762030215686
1.379970083,1.027832339657843,-0.2368009980666666,0.11198288602941181,3.6052563021372546
1.389986083,1.2637390118539218,-0.3608230217137255,-0.023081931127450928,3.5829632428431375
1.400003083,1.4768630515990195,-0.4564554948764706,-0.20606787359803916,3.579736206647059
1.410020083,1.6653525883441174,-0.5067079910588236,-0.3932182030686274,3.587597415392157
1.420036083,1.825075973795098,-0.5129260463137254,-0.5668098942254902,3.6001171561960783
1.430053083,1.9582584002460783,-0.49004136274313725,-0.7323991605588234,3.6261503483333333
1.440069083,2.0816106253245095,-0.46840307624764704,-0.9066417958529412,3.6759398625686277
1.450086083,2.198602653383333,-0.4658305191966666,-1.0684081468529412,3.7249423197254905
1.460103083,2.288389662187255,-0.4645588988398039,-1.1898732175,3.731690968117647
1.470119083,2.3422460811264707,-0.45436208850999993,-1.2717812780607844,3.700395991137255
1.480136083,2.3670971847558824,-0.44070027550999996,-1.3237911154882351,3.6471801163784314
1.490153083,2.390064020277451,-0.4557665553178431,-1.3468980276450981,3.63322407057451
1.500169083,2.4199922096656863,-0.51383718011,-1.3580152585078429,3.6630957726921567
1.510186083,2.433458887607843,-0.5881376003649019,-1.3279104215666666,3.7340431365941176
1.520203083,2.43309165522549,-0.6671717888354902,-1.276562122762745,3.8226553075352943
1.530219083,2.4282180755,-0.7821803983452941,-1.208994653819608,3.9432119702607844
1.540236083,2.407863558092157,-0.932281852227647,-1.1544675076392157,4.08453714292745
1.550253083,2.3828233500607845,-1.082367312247255,-1.1785745459137253,4.206423843554902
1.560269083,2.32950917007451,-1.231041437855098,-1.190978370580392,4.335211005260784
1.570286083,2.251784135937255,-1.3978827593080392,-1.1566637017568626,4.493720534398039
1.580302083,2.154112765917647,-1.5592186520590197,-1.0819177122078432,4.6440665713
1.590319083,2.039642822545098,-1.6917847304041176,-0.9751426129137255,4.732634974672549
1.600336083,1.8958195298392155,-1.780299089855098,-0.8676579798156862,4.797419482339215
1.610352083,1.745681384682353,-1.8188889933884314,-0.7763716273843135,4.867523362790196
1.620369083,1.6026714912705882,-1.8313277293864707,-0.7124898189725489,4.91648937557451
1.630386083,1.4516182196039216,-1.8183133751315685,-0.6551263289333332,4.960773913809804
1.640402083,1.2922866721333333,-1.7791268262884312,-0.6024455256470588,5.011032580437255
1.650419083,1.1194830366039217,-1.7371969702492158,-0.5738164327882354,5.050948290947058
1.660436083,0.9441161537215685,-1.6936863366413724,-0.5485870229039215,5.080223550045098
1.670452083,0.7950042551137254,-1.6402071978178432,-0.5024943104705881,5.113499265594117
1.680469083,0.6946084394470589,-1.5693932085629414,-0.4640524360823529,5.1579214798686275
1.690485083,0.6378104926823528,-1.4717375185433332,-0.42151411705882347,5.2417896777509805
1.700502083,0.6005908311098038,-1.3559411285707843,-0.3508012359078431,5.35894708302549
1.710519083,0.5478009829921568,-1.2377025285962744,-0.274310881490196,5.482799796927451
1.720535083,0.46595305274509796,-1.1239440194041177,-0.1963043383058823,5.612764033986274
1.730552083,0.3467875544313725,-0.9988929889982353,-0.10313215852156855,5.7574034537313725
1.740569083,0.2095242830764705,-0.8562033510335294,0.003984372301960838,5.918587079652941
1.750585083,0.05850553864901955,-0.7176737089080392,0.11331835073333338,6.0783234096725485
1.760602083,-0.09890246119411772,-0.5857564536727451,0.21952732490980398,6.2358396666725495
1.770619083,-0.2501021755078432,-0.46609818413549015,0.32176027269411767,6.380301973515686
1.780635083,-0.3779496454098039,-0.3611038486531372,0.41575425857647064,6.496605070790197
1.790652083,-0.4871215327235295,-0.2675986384099999,0.500006095282353,6.5726329809666675
1.800668083,-0.5731432470764707,-0.18966279780999992,0.5713479161450982,6.607563398809804
1.810685083,-0.6224375365176471,-0.12380431235705874,0.6131352864352941,6.604341407045099
1.820702083,-0.6339182148313726,-0.08015523733745089,0.6216853545921569,6.5904400761039215
1.830718083,-0.5941807034980393,-0.06831656325901952,0.6061432346705883,6.625347494829412
1.840735083,-0.5205573908313725,-0.10174576012176463,0.5719714528862746,6.711753062535294
1.850752083,-0.4381349071450981,-0.16932832576882345,0.5094878656509805,6.834583101437255
1.860768083,-0.3836319724588236,-0.24432853163156854,0.42740407906274513,6.956289369496079
1.870785083,-0.34288869990980403,-0.2925558962590195,0.3828273490039216,7.032424544005883
1.880802083,-0.2947097238509805,-0.2930337513570587,0.37603460420000007,7.0720517733
1.890818083,-0.2507532285960785,-0.25860012896490187,0.37470419639607844,7.096905908594117
1.900835083,-0.23147564649803928,-0.21662771435705871,0.3713161705921569,7.099508030496079
1.910852208,-0.24358621612549028,-0.17473400786686263,0.37608774506274517,7.07064918902549
1.920869208,-0.28205997790980397,-0.14540743533745087,0.39250845784705884,7.02072479957451
1.930886208,-0.3294608730078432,-0.13597772237666655,0.42742288188627453,6.964126985319608
1.940902208,-0.3941223416941177,-0.14716971733941167,0.48385779395882356,6.884817085103922
1.950919208,-0.49560213941960796,-0.1885417146192156,0.5521918930764707,6.799401425731372
1.960936208,-0.6183636466941177,-0.2590137563996078,0.6024694806843138,6.7662761802607845
1.970952208,-0.7172901029294119,-0.37125445452313716,0.5774028168803922,6.829807609437255
1.980969208,-0.7628996031803922,-0.5201577451156862,0.5530052465196079,6.947001429456864
1.990986208,-0.7912368067568629,-0.6743624653745096,0.5757232851627452,7.097016193000001
2.001002208,-0.8664421710431373,-0.7899355490215685,0.5452074864294117,7.209994664627451
2.011019208,-1.0164446034725492,-0.7982682670019606,0.5031638676313726,7.273854315117647
2.021036208,-1.2270711698490195,-0.6570048910411763,0.4658644789843138,7.347580482666666
2.031052208,-1.4777007598,-0.4137323207666666,0.3731787732019609,7.463258923568628
2.041069208,-1.7233351466235294,-0.1104937908843136,0.294880284854902,7.569750499607843
2.051085208,-1.9010542425490198,0.18604200690000008,0.32410914009019615,7.6101460819803926
2.061102208,-1.99450151377451,0.41271109876274514,0.4658171452078432,7.629495123254903
2.071119208,-2.0332564291666664,0.5382619743901962,0.5953923383450981,7.6285058218039214
2.081135208,-2.0409374463039214,0.6213081897431373,0.683077072482353,7.611262101686275
2.091152208,-2.025130375872549,0.6918733742333334,0.7547607261490196,7.5908865638823535
2.101169208,-1.9830435736764707,0.7326226201156864,0.8263238354431374,7.582514184196079
2.111185208,-1.8965624516176471,0.7316762998411765,0.8934048332470589,7.573877837960784
2.121202208,-1.810790705735294,0.6936844747470591,0.9317180602862746,7.557410539078432
2.131219208,-1.735340257107843,0.650043115745098,0.9659351608549019,7.53653560472549
2.141235208,-1.6643042184019607,0.5975623488705883,0.984944206717647,7.489863360882353
2.151252208,-1.5998773520490195,0.5363476074333334,0.9923414590313726,7.4224208640196085
2.161268208,-1.521612569745098,0.4806523165549021,1.0200001849333336,7.353692144098039
2.171285208,-1.4413011731117646,0.4206213382000001,1.0544513862313725,7.2846412738627455
2.181302208,-1.3704985586960783,0.3441835313176472,1.071715789192157,7.213378845784314
2.191318208,-1.3144181297764705,0.2468385691980393,1.0946417816235294,7.14500451982353
2.201335208,-1.2523094465215687,0.13366729244117653,1.0366305232705884,7.067956398921568
2.211352208,-1.1575503467333335,0.026706480990196145,0.8023512745058825,7.116468642019608
2.221368208,-1.063766969537255,-0.08405683212745094,0.7056892499960785,7.037893201235295
2.231385208,-0.9403208221254902,-0.18393730746078427,0.6720778894274511,6.952537582470589
2.241402208,-0.7834894523411765,-0.2932823726764705,0.631493976427451,6.844985290862745
2.251418208,-0.617211630517647,-0.41842408079411764,0.5629270610452941,6.692894832568627
2.261435208,-0.44801112092941175,-0.5283377361470588,0.4643904937119609,6.544966536745098
2.271451208,-0.27083089034117647,-0.6208950554019609,0.37112279506490203,6.408154864882353
2.281468208,-0.09979369579215688,-0.7072765225588236,0.2967667216394118,6.277425829254902
2.291485208,0.05093040056078431,-0.8005692724960785,0.23883001672764714,6.162948707352942
2.301501208,0.1794486406784314,-0.8909651627571765,0.19511725720176476,6.085027467117646
2.311518208,0.27729605059999995,-0.9637951458591371,0.16864892836450987,6.043256430843137
2.321535208,0.31870786053137257,-1.0039444444846275,0.17130689775666672,6.025529232764706
2.331551208,0.3158101438450981,-0.9886930372493332,0.19879930763901968,6.028317334784314
2.341568208,0.2615714689039216,-0.9156291311316862,0.2443574469970393,5.990733489941176
2.351585208,0.16002871902352944,-0.7883009656414902,0.3055534028107648,5.896883021862745
2.361601208,0.02508348746313728,-0.6282335862101176,0.3859888134382158,5.758783573843137
2.371618208,-0.08927643437019606,-0.46510523522972547,0.48525293204605885,5.605437755490195
2.381634208,-0.1952634862760784,-0.33135173642580384,0.5521565700264511,5.482363446196079
2.391651208,-0.3157800801290196,-0.25198332799443135,0.5866781242225295,5.377438516431373
2.401668208,-0.4456985851260784,-0.2127651239375686,0.614529791046059,5.269719256686274
2.411684208,-0.5752877993927451,-0.18308396937835292,0.6376435937519412,5.1639255546862755
2.421701208,-0.6975416228692156,-0.15573838764698036,0.6497470578695884,5.070941007980393
2.431718208,-0.7960229920554902,-0.13886874627443135,0.6462042499872354,5.005064917607843
2.441734208,-0.8674237451064706,-0.13929489364698036,0.6123141090852745,4.98307307372549
2.451751208,-0.8874234841260784,-0.15720243872541176,0.550955010208804,5.024033486882352
2.461768208,-0.8462515762829411,-0.15916446619599997,0.500923854071549,5.069671622745099
2.471784208,-0.7618236352045097,-0.12585023019599997,0.4789700415029216,5.067976858941177
2.481801208,-0.6605520384790194,-0.0472312628430588,0.5050573425421373,5.015470964235294
2.491817208,-0.5699131333456862,0.06832407278439219,0.49514823240488237,4.960330361098039
2.501834208,-0.46328245454176464,0.19539710476478434,0.40001712932645106,4.908880184803921
2.511851208,-0.3026654081692156,0.303319863431451,0.3237511790009608,4.869135848039216
2.521867208,-0.0701465553849019,0.3335033626079216,0.2566108118970392,4.843897921862745
2.531884208,0.2330439241445099,0.2271280982157647,0.14846603099507852,4.776598794058824
2.541901208,0.5816614334582354,0.020215039745176504,0.07474774691468633,4.6625058535098045
2.551917208,0.9284740793798041,-0.22500010166658824,0.007562786202921623,4.561860256627451
2.561934208,1.2362842605366666,-0.43890883774501954,-0.13084429369903916,4.519262154607843
2.571951208,1.484517803477843,-0.5612247470391372,-0.34971982673825486,4.483712258196078
2.581967208,1.6626883803994117,-0.5585276557646274,-0.5557257155029607,4.425310631431373
2.591984208,1.7784189375954902,-0.5042972758430588,-0.7329238288166862,4.338197978215686
2.602000208,1.8760935536739214,-0.4644029731371765,-0.9098060692284509,4.2575435702745095
2.612017208,1.9574567884582352,-0.4469210250979608,-1.065174282228451,4.18781088754902
2.622034208,1.9859850490878432,-0.4389536090391372,-1.1766401906009998,4.116644715568627
2.632050208,1.9764914008329413,-0.41138647517639215,-1.2288756266598233,4.067219473333333
2.642067208,1.9691816833231373,-0.4222228791763921,-1.2558222448166863,4.052291186607843
2.652084208,1.9886584992623528,-0.5125686553607058,-1.257086871444137,4.101649498490197
2.662100208,1.9982420627839215,-0.6478894487077648,-1.2114148432284508,4.201220357882353
2.672117208,1.9869481700486273,-0.7867849430842354,-1.1380223780519805,4.321968782117647
2.682134208,1.9740295940427453,-0.9320172599646275,-1.0755231839147255,4.4427376554901965
2.692150208,1.961086388081961,-1.0831730585332549,-1.056900283601,4.550015681019608
2.702167208,1.937212266764314,-1.2303197538254118,-1.0980862591602156,4.646197193352942
2.712184208,1.8841599918819611,-1.3651075448136472,-1.105974221866098,4.732214305294118
2.722200208,1.759480600744706,-1.48921709324502,-0.9747664631994314,4.660106753196079
2.732217208,1.6192103571760788,-1.5828257074803136,-0.9572874187170782,4.698973559196078
2.742233208,1.4695787213525489,-1.6594414531469803,-0.9577009687759019,4.734597551941176
2.752250208,1.3238471783721568,-1.7036582813469805,-0.9119336194817842,4.771789758588235
2.762267208,1.1976592658035292,-1.7178586802332552,-0.8255783734329607,4.837594520058823
2.772283208,1.0845714924309804,-1.735095733115608,-0.7054618885702157,4.889129199784313
2.782300208,0.967137417744706,-1.7444096368214903,-0.6114212969427647,4.922965780705883
2.792317208,0.8537487592741176,-1.7259433730959999,-0.5584128346153137,4.962825161470588
2.802333208,0.7469082915486276,-1.6660638834920785,-0.5263878967427646,5.017875694764706
2.812350208,0.6306774649407845,-1.5801383042505883,-0.4836773041188431,5.084879666098039
2.822366208,0.5342660050584314,-1.4842669092662744,-0.4413143170070784,5.150262297098039
2.832383208,0.4782412006466667,-1.4003550537584315,-0.41053657447374503,5.220799808843137
2.842400208,0.4208375023917647,-1.339714004425098,-0.388051748728647,5.278132357901961
2.852416208,0.3497805154701961,-1.286717364072157,-0.3616243117141176,5.334958005784314
2.862433208,0.2842270110368628,-1.2353913305623527,-0.307619525410196,5.398311283000001
2.872450208,0.22119817810705883,-1.1757884371701959,-0.2295183748611764,5.47184202
2.882466208,0.14047973715607845,-1.095475577307451,-0.14100156188078428,5.562988944078431
2.892483208,0.04945765272862746,-0.997459618542745,-0.05028406042980388,5.674003605588235
2.902500208,-0.051841828261568614,-0.8849853298760785,0.03788044635450985,5.803339131254902
2.912515333,-0.15556413059784313,-0.7590433443054901,0.12766141878588239,5.943740388313725
2.922532333,-0.24895696037039217,-0.6218737645509804,0.22368094896235297,6.087721281823529
2.932548333,-0.3296590176586275,-0.48329915620392155,0.3168052675505883,6.220440197607843
2.942565333,-0.40628442198215686,-0.3550849082431372,0.4036845477270589,6.321527289607843
2.952582333,-0.4716010582841176,-0.240046409145098,0.5035672989035295,6.372878113784314
2.962598333,-0.5351782152841176,-0.13995463149803916,0.6186421539231373,6.365018272294117
2.972615333,-0.5941001344605882,-0.06567570838039212,0.7093511052505882,6.309375116803921
2.982632333,-0.6216026222056863,-0.024366356556862704,0.7282318849760785,6.265696821313725
2.992648333,-0.5798569247743137,-0.04105152400784311,0.644136254917255,6.354078626117647
3.002665333,-0.48151888759784306,-0.13654967171372545,0.5111881814270589,6.540310279019607
3.012682333,-0.3958730746958824,-0.2655833324196078,0.4309109551721569,6.704274339941176
3.022698333,-0.36320187189196074,-0.35386421598823525,0.4499139359760784,6.76831702490196
3.032715333,-0.3632514814998039,-0.3764253765568627,0.46085209299568625,6.774845036156863
3.042731333,-0.3647280295782353,-0.3571923364784313,0.4210880227015687,6.788191811196079
3.052748333,-0.37178665073509803,-0.33290708424313725,0.3844265824858824,6.7929191921176475
3.062765333,-0.41322682540176475,-0.30732127367450973,0.3993900487407844,6.742663589156862
3.072781333,-0.4966831484017647,-0.2596432033607842,0.43526626523098044,6.6404823743725485
3.082798333,-0.6136485056958824,-0.20679249118431367,0.4467820526427451,6.522145053156863
3.092815333,-0.7184471142339215,-0.21212160912549016,0.4289219129956863,6.481440936313724
3.102831333,-0.7628245344986274,-0.3041543414196078,0.38364365750549023,6.558399961647059
3.112848333,-0.7434234643613724,-0.45223035416470586,0.3607367029172549,6.695156968745098
3.122865333,-0.6865715340280392,-0.6074797311843138,0.4221110790741177,6.8503450275294115
3.132881333,-0.647172810794902,-0.718992428027451,0.5335354722113727,6.99683396890196
3.142898333,-0.6679296008733333,-0.7668351949098039,0.6465173565250981,7.115416348137256
3.152914333,-0.7888690727360784,-0.6856602720078432,0.7659348927407843,7.274460833745098
3.162931333,-0.9936964265184314,-0.450190937145098,0.7532602158584314,7.413546986509804
3.172948333,-1.2126489909027451,-0.13440013210588234,0.536936763152549,7.585610722019608
3.182964333,-1.3905668076086277,0.1719391303647059,0.38030559172117645,7.690984654333334
3.192981333,-1.4946816731380392,0.4439240976588236,0.41329581174078434,7.758415903764706
3.202998333,-1.5789432035929412,0.6705798326392158,0.483961132662353,7.793245645941177
3.213014333,-1.6924033141752943,0.730207433364706,0.5931945504568628,7.836707390941176
3.223031333,-1.7839182411360783,0.6993875851490198,0.7438668645549019,7.92444179272549
3.233048333,-1.8232349621752941,0.6325351074235296,0.8935514348882352,8.021620923666667
3.243064333,-1.822853735175294,0.5516414699921569,0.995600255562745,8.106531671647058
3.253081333,-1.7746926389792157,0.4743388026,1.0375234876215687,8.150029365196078
3.263097333,-1.7040292699870592,0.40089025287843144,1.020668785307843,8.142376906627451
3.273114333,-1.6317515363458823,0.35525068245098046,0.9918134410529413,8.09135886172549
3.283131333,-1.5584275294517649,0.3342945940431373,0.9771125548960784,8.039993235862744
3.293147333,-1.4868259417458825,0.31109615576862754,0.9903566072686274,8.003822075215686
3.303164333,-1.423119386432157,0.2825317391411765,1.022533405052941,7.977984793098039
3.313181333,-1.3627150518837257,0.24528426461176472,1.0574794814254902,7.949276146058824
3.323197333,-1.295841975634804,0.19063662280784316,1.042950317092157,7.874212803176471
3.333214333,-1.258014705225,0.12036515198431376,0.8870250249745099,7.8724565551568615
3.343231333,-1.2341390389757843,0.030169993188235326,0.815085076954902,7.800605451607844
3.353247333,-1.189591688307157,-0.0673579867796078,0.8322965052686274,7.744934185764706
3.363264333,-1.1365915453679412,-0.16498170056980388,0.841266839190196,7.666228188352941
3.373280333,-1.0797509103385294,-0.2530512588835294,0.8208513144058823,7.572108796745098
3.383297333,-0.9998432883012744,-0.34155588445215684,0.7675977233352941,7.46676534654902
3.393314333,-0.9028435182836274,-0.43390698043254894,0.6791957938058825,7.370352281980392
3.403330333,-0.7948819157542157,-0.5308358042364706,0.5727135655117647,7.275120501568629
3.413347333,-0.6667045310483334,-0.6452265579619608,0.48232747219803923,7.1547951470392155
3.423364333,-0.5249536922248039,-0.7676490471070587,0.41302838186274504,7.0194688059803925
3.433380333,-0.39452045171500005,-0.8759938830286275,0.3498113187549019,6.884682181960784
3.443397333,-0.27358480059735296,-0.9656484380678432,0.3015339317764706,6.768966085960785
3.453414333,-0.15211067251892157,-1.0335288792443136,0.27304722005098037,6.687602045196079
3.463430333,-0.0369128998522549,-1.07729082846,0.2555383117568627,6.647681398039215
3.473447333,0.0576739019712745,-1.1005966032835295,0.24543627505098037,6.633892904686275
3.483463333,0.1188936937948039,-1.1018033768717646,0.2528151487823529,6.645926345960785
3.493480333,0.11460437416735292,-1.0728491114796077,0.2993262209019607,6.628978257686274
3.503497333,0.012519643275196071,-1.0030111715580392,0.4034834672941176,6.478290879705883
3.513513333,-0.16776230376794116,-0.8824092646070588,0.5426620557647058,6.2366584835882355
3.523530333,-0.33773349500833333,-0.7426712437835294,0.6412138344705882,6.010832137647059
3.533547333,-0.46043701953382354,-0.6301777395698039,0.623454418862745,5.893644587980392
3.543563333,-0.5588631203632353,-0.5525726794033589,0.5718015088039214,5.8585188329803914
3.553580333,-0.6420177915397058,-0.49562943219159417,0.5583277927058825,5.822003102666666
3.563597333,-0.6948017078730392,-0.43847355270728045,0.5681382797843136,5.772609980156862
3.573613333,-0.703242049010294,-0.3930133427543392,0.5672626592352941,5.751035632333333
3.583630333,-0.6786128142455883,-0.3958490474210059,0.5542345410980392,5.776340076862745
3.593646333,-0.6165805976769608,-0.4393338271464961,0.546798579627451,5.844995986274509
3.603663333,-0.5183834841389215,-0.45713415034257454,0.5562239415882353,5.894878179862745
3.613680333,-0.42269502675656856,-0.3966669123817902,0.5887025130196079,5.876673940588235
3.623696333,-0.3627831940114706,-0.2592550056759078,0.6035507318039216,5.803583264607844
3.633713333,-0.3310313512271568,-0.09984539204845685,0.5149804511960784,5.718020437901962
3.643730333,-0.2528950027369608,0.009433049304484329,0.33706047331372546,5.661088934176471
3.653746333,-0.08534119232519606,0.008778642677033356,0.11282119192156863,5.633011351941176
3.663763333,0.1664174993414706,-0.11871045883277057,-0.13633869901960782,5.559403037588236
3.673780333,0.4700754350865686,-0.34069362647982937,-0.26291582978431366,5.456292153784314
3.683796333,0.7968795338904903,-0.6004417128523784,-0.215579890372549,5.261588514862744
3.693813333,1.0784631299100982,-0.8255126804210058,-0.2426567352156863,5.087025301607843
3.703829333,1.2672617321453923,-0.9820163997484568,-0.43427992094117646,4.927433704803922
3.713846333,1.4144857654591179,-1.072785319438653,-0.6251349315686274,4.8117722228627455
3.723863333,1.583300817419902,-1.0001258686602217,-0.7951669754117647,4.702014108803922
3.733879333,1.757959333066961,-0.8659572290131627,-0.9257838442803921,4.553774816019608
3.743896333,1.8978450763414707,-0.7276051931896333,-0.9979884045941176,4.406750352921568
3.753913333,2.007387209929706,-0.5932680276210058,-0.9980082507313724,4.306636403000001
3.763929333,2.081950966968922,-0.5099914778366922,-0.9629055692803922,4.274634604686275
3.773946333,2.1251479576434313,-0.5206878008955157,-0.9282165382019608,4.307273990980392
3.783963333,2.1508185155865687,-0.6133434450915941,-0.8727496900254902,4.410825294627451
3.793979333,2.1617807966689218,-0.7498200724680647,-0.8137725633784313,4.526281547196079
3.803996333,2.17130369533049,-0.9128067717817901,-0.7897131741823529,4.619591259588235
3.814012333,2.1798977379885294,-1.1057546843504176,-0.8295605787705881,4.6990403018039215
3.824029333,2.1680270116989218,-1.3015657147229667,-0.9076126098372549,4.781779647607843
3.834046333,2.1182304249205886,-1.4691314947229666,-0.9550926902686274,4.8867507924509805
3.844062333,2.053997644569608,-1.5966911297033588,-0.8631280207156863,4.903020889725489
3.854079333,1.9672938353203921,-1.6686524458484568,-0.8291946505501959,4.977849241098039
3.864096333,1.8657092635145098,-1.694164684704143,-0.8420729910992156,5.023684373784314
3.874112333,1.7859318767517647,-1.698129452335516,-0.8262613403541176,5.072134929156863
3.884129333,1.7107683895654902,-1.6999241348061038,-0.7756555462364706,5.138321281313726
3.894146333,1.608855631312549,-1.6924485613159077,-0.691247067224706,5.22269178254902
3.904162333,1.487276058432157,-1.672357665923751,-0.5766885328129411,5.2992335900196075
3.914179,1.3653290281772548,-1.6462638011002215,-0.44546695865607844,5.366070141980392
3.924195,1.2455235091380392,-1.6062003992178686,-0.3615102945776471,5.4277887892352945
3.934212,1.1190064212556863,-1.5609316110531628,-0.3347480442756863,5.490303452862745
3.944229,1.0135242015498038,-1.5131275275041431,-0.30967255805019606,5.554017478764705
3.954245,0.9121214896086275,-1.4738103908374764,-0.28719142981686274,5.612272708
3.964262,0.8043366679027452,-1.4306114940727706,-0.2589042571894118,5.6679041653725495
3.974279,0.6998820476086275,-1.3844669305825743,-0.23641555050313723,5.706504002921569
3.984295,0.6064487065105882,-1.329990084778653,-0.21512343922862748,5.748969104176471
3.994312,0.5270123929811765,-1.2616924505041434,-0.18548248428745098,5.8137675973333325
4.004328,0.44758997519686283,-1.1789667772100256,-0.1335822284070588,5.916297687411765
4.014345,0.35409827516745096,-1.0764413654649274,-0.04312633252470588,6.039384947352941
4.024362,0.25893987146549025,-0.9518383693570843,0.06983519829882354,6.160407804745098
4.034378,0.15242981586274512,-0.8191227398864962,0.18587079957333333,6.280132727098039
4.044395,0.03710989585882356,-0.6968383252963,0.3187667984556863,6.3758551455490196
4.054412,-0.07372049970392154,-0.6029952950313725,0.47289287939686275,6.425331854803922
4.064428,-0.19462747509607842,-0.5386122340666667,0.6257435335537255,6.440298815784314
4.074445,-0.33455520368431374,-0.4907736404921568,0.7534859054949019,6.437956262803922
4.084462,-0.4732067029196078,-0.44290221077843134,0.8349933457890196,6.412850919784314
4.094478,-0.5793600769392157,-0.3834008411215686,0.8758057645264706,6.3394563113333335
4.104495,-0.6451899654882353,-0.3187335940137255,0.8836119178009805,6.261522660705882
4.114511,-0.6869600320372549,-0.28606675942549015,0.8406183213696078,6.246696086803921
4.124528,-0.6976395128215687,-0.299091994072549,0.7548023028990196,6.2988306010980395
4.134545,-0.6879431324294117,-0.34463806638627453,0.6444282079774509,6.39165800845098
4.144561,-0.6899440954882351,-0.3895265906215686,0.5702287496441176,6.4531578577058815
4.154578,-0.7044334041549019,-0.3977182531313725,0.5880342665460784,6.4381985901960785
4.164595,-0.7158551717627452,-0.35796797536666664,0.6546846197696078,6.391138644117646
4.174611,-0.7213074022725491,-0.29605054764117644,0.707523689122549,6.3388516630392155
4.184628,-0.7160165090568628,-0.23562621217058824,0.7386751776519608,6.303005365215686
4.194645,-0.71663788462549,-0.1904410965235294,0.7854593749460784,6.263624032764706
4.204661,-0.7279630470764705,-0.1530049976745098,0.8514996228205882,6.221213648882353
4.214678,-0.7572835717431371,-0.11430624420980391,0.9067332645519608,6.181841300627451
4.224694,-0.8078411607333333,-0.08742261546078431,0.9452134124009804,6.137856347627451
4.234711,-0.859430574052941,-0.09747801489411766,0.9551587752637255,6.116016199666667
4.244728,-0.8987498317588234,-0.14556337244313725,0.9099116103284315,6.1424796852549015
4.254744,-0.9108409221117647,-0.20418371575686275,0.8794209030225489,6.170198304470588
4.264761,-0.9576521541784314,-0.2512013029333333,0.8883768195323529,6.194403034607843
4.274778,-1.058528450452941,-0.2932255169921569,0.8629181515127451,6.211516394960785
4.284794,-1.141487192609804,-0.3233438713058824,0.7526424331343138,6.213489731274509
4.294811,-1.238017041390196,-0.309053780717647,0.6271798275382353,6.181219825058824
4.304828,-1.395066195601961,-0.20101290828627452,0.4959346982794118,6.1566342174705895
4.314844,-1.5888162243419608,-0.006886976678431372,0.36190479816176474,6.195927978235295
4.324861,-1.7650599660196078,0.21842682232156863,0.3466549845833333,6.2279159131568615
4.334877,-1.89282168392549,0.40588139041960786,0.4771226262186275,6.2559289554509805
4.344894,-1.9564760270431372,0.551091430554902,0.6284039894539215,6.282916441215686
4.354911,-1.9819082392980392,0.6516747641352941,0.7665485121754902,6.309802785803921
4.364927,-1.9824012971607845,0.6896385569784315,0.8882262208139217,6.353352470843137
4.374944,-1.9764045819647056,0.6697591817431372,0.9651102246962745,6.401494152117647
4.384961,-1.9916608676117646,0.6247957214196078,1.0107518932452944,6.450374243862745
4.394977,-2.008039824415686,0.5798965116745097,1.0224677184805882,6.470520263254902
4.404994,-1.986255758807843,0.5277319186588235,1.0076875165786274,6.440362602921569
4.415011,-1.9248321284549017,0.4552609546117647,0.9754895369707844,6.362753119
4.425027,-1.8457606295921567,0.37941346429411765,0.931643376382549,6.258840617686276
4.435044,-1.774718478552941,0.3150506622086275,0.9221880130688235,6.177617204333333
4.44506,-1.7181062296117648,0.2557421474713725,0.94696273171,6.115466888745098
4.455077,-1.6766923416313726,0.17886385035333335,0.9655876499060785,6.058038794333334
4.465094,-1.6257956241588232,0.09435414570431373,0.9801211967688236,6.0006044481372545
4.47511,-1.5641833637784313,-0.002893305491764693,0.9742781486903923,5.930982804254902
4.485127,-1.492937870072549,-0.10536470501529412,0.9107473423413727,5.84802291909804
4.495144,-1.4069314014647056,-0.1930096752290196,0.7585749766550981,5.849898986098039
4.50516,-1.3282208019352941,-0.27524736970745095,0.6930730911099999,5.775995413980392
4.515177,-1.2407339473078431,-0.3658873640329412,0.6797300889531372,5.695882284803922
4.525194,-1.1158786610333333,-0.45762584381725496,0.6525510152864706,5.597279499647059
4.53521,-0.97435970442549,-0.5433576738564706,0.6065827682864706,5.489402824901961
4.545227,-0.8314332886215685,-0.6259534701505882,0.5326079476570589,5.368684425509805
4.555243,-0.6786086602882352,-0.7092463462878431,0.43930000640215694,5.257148501921568
4.56526,-0.5274667144647057,-0.787322199034902,0.3618163504805883,5.1581920765686275
4.575277,-0.3816055925823528,-0.8433535672309804,0.31128757766686277,5.080607277196078
4.585293,-0.24761746566078421,-0.8765205451329412,0.2772348598060785,5.03132911137255
4.59531,-0.13472769220980385,-0.8760597386819607,0.2540920345676471,5.020814720764706
4.605327,-0.06276598052352933,-0.8486617613192158,0.24171344463607852,5.055028224647059
4.615343,-0.04086279509215677,-0.8027632624270588,0.2620122931086275,5.074487711137255
4.62536,-0.06500711222941168,-0.7200038931329411,0.3407910599988236,5.010294522862745
4.635377,-0.13889290326862735,-0.5918890019760784,0.4724265797654903,4.870529092431372
4.645393,-0.24997873187843128,-0.43789235085843137,0.6315749116243138,4.685697663843137
4.65541,-0.35488064695882343,-0.29255624017215687,0.7543463362243138,4.526000099666667
4.665426,-0.4453040349019607,-0.18762881517215688,0.7841839697145099,4.4339748149215685
4.675443,-0.5346961474176469,-0.12926589840745098,0.7644819800792158,4.3639055345686275
4.68546,-0.6325777708878431,-0.09523551606431373,0.7524553294713726,4.299531860764706
4.695476,-0.737588930025098,-0.0744039389545098,0.733397562549804,4.252732526941176
4.705493,-0.8215413889309804,-0.07151711124862745,0.6655564295694119,4.255644330784314
4.71551,-0.8619775135388236,-0.09777170570549018,0.5684088052439217,4.2936942395686275
4.725526,-0.8465207887741175,-0.15650473976431373,0.4954017948262746,4.342424757039216
4.735543,-0.7750089171368626,-0.22271680978392155,0.4626942876831373,4.407958735568628
4.74556,-0.6823941403858822,-0.2568492432466667,0.46195205244784315,4.4675891577058815
4.755576,-0.6138278380133332,-0.23924370112901958,0.4672748703105883,4.492603573470588
4.765593,-0.555313380915294,-0.19844140610941174,0.3977090265576471,4.523451260686275
4.775609,-0.440530485397647,-0.1731043658937255,0.2419765893615687,4.526423775843137
4.785626,-0.270072878907451,-0.1354154495015686,0.1050780394988236,4.515740633588235
4.795643,-0.10980664253490194,-0.05748694657999998,0.06374169303411771,4.509450282862745
4.805659,0.07434174932784317,0.0035812819690196145,0.01232377798313732,4.504843970666667
4.815676,0.33253564577882355,-0.030391728893725482,-0.04657204944431365,4.483378746431373
4.825693,0.6306487242494119,-0.150435157952549,-0.07005835416980385,4.4142207305882355
4.835709,0.9045815825435295,-0.28517448583490196,-0.1449794735521568,4.356192417862745
4.845726,1.1385385694847059,-0.3657474321486274,-0.31670207357176466,4.289995487215687
4.855743,1.3167888004062747,-0.38554253869176464,-0.5156162098266667,4.211173603215687
4.865759,1.4622211092690196,-0.36076456107607846,-0.7194773083756862,4.153096771352941
4.875776,1.6040074727984315,-0.30747596121333337,-0.9359108721599999,4.112669663784313
4.885792,1.7563425974454903,-0.25896115433490197,-1.1192978762972547,4.074227805529412
4.895809,1.9204384677003923,-0.2432545929427451,-1.2497281043364705,4.0296696981176465
4.905826,2.0704525228964705,-0.27018220192313724,-1.3385311213266666,3.997076525686274
4.915841375,2.1396423319199998,-0.2965819563780392,-1.330025944895294,3.9900220731176472
4.925858375,2.165584654974902,-0.31073760686039215,-1.2427460931894116,4.061500989117647
4.935875375,2.202435652467059,-0.4016550572878431,-1.210619770640392,4.141995998019608
4.945891375,2.2335746640690197,-0.5595314391631373,-1.1944173653658823,4.269139898470589
4.955908375,2.257253567202353,-0.7177757714062746,-1.1513860085423528,4.3961630565098035
4.965925375,2.2759811986121568,-0.8830921734058822,-1.103964631012941,4.531665116490196
4.975941375,2.2772582090121567,-1.0506610146,-1.0782388312090196,4.668630315176471
4.985958375,2.2688544358964706,-1.1975869946980393,-1.0985073673266665,4.78526629445098
4.995974375,2.2328970348356862,-1.3278875292137255,-1.1008849627286275,4.903355424352941
5.005991375,2.154960125110196,-1.4516264329607844,-1.0283434651992156,4.919533034176471
5.016008375,2.062094545796471,-1.548929260717647,-1.0336106599874508,4.977322922058823
5.026024375,1.9619079859141175,-1.6219372055490198,-1.0557600504580391,5.016983021686275
5.036041375,1.859479460247451,-1.6729594475294118,-1.0260938922815686,5.055810569509804
5.046058375,1.765762340012157,-1.7084381622627451,-0.9691868290070588,5.091874706607843
5.056074375,1.653782290110196,-1.7358701108058823,-0.9029995824168626,5.140664768470589
5.066091375,1.5381950584827453,-1.745973480327451,-0.8220275922796079,5.177363000392156
5.076108375,1.432909293757255,-1.7449018576745097,-0.7576571200247059,5.199217661705882
5.086124375,1.314747601874902,-1.7414138903607845,-0.7257152871521567,5.223595717313725
5.096141375,1.1786490141886274,-1.7139280901058822,-0.7122620606737254,5.266377032039215
5.106157375,1.0610137666200001,-1.6828662932823528,-0.6797512249254902,5.301637177588235
5.116174375,0.9701584457180391,-1.6519564667333333,-0.612629442790196,5.3394921675294125
5.126191375,0.8598551250513725,-1.6183855150274509,-0.5358125743999999,5.394629915882353
5.136207375,0.7534964048356863,-1.575100962282353,-0.4527134689764705,5.46819249272549
5.146224375,0.6649941998552942,-1.5261355070666667,-0.36815700668431367,5.549725877450981
5.156241375,0.5763842914454903,-1.4709629916745097,-0.28189181026862736,5.6426490445686275
5.166257375,0.47206606605529416,-1.4009382848117646,-0.19388855479019604,5.755257103666667
5.176274375,0.3407279760964706,-1.3160914480666668,-0.09754842808431366,5.8970925466274515
5.186291375,0.19092003525921566,-1.2180590368313724,0.007085830700000072,6.0643876958823535
5.196307375,0.04087217100392158,-1.1022595168803921,0.12141851926862753,6.234885226686274
5.206324375,-0.09906359605490195,-0.9709317297745098,0.25588470766078436,6.370938947627451
5.216340375,-0.22911672491372545,-0.8306580122843138,0.4115219155039217,6.457052330862745
5.226357375,-0.35559912793333337,-0.6937446552254902,0.5588009527784314,6.514976586862745
5.236374375,-0.48553502550196076,-0.5708128162843138,0.6720655843666667,6.556750990980393
5.246390375,-0.6085482725999999,-0.4622403287745098,0.7522538354843138,6.552393493137254
5.256407375,-0.7073569389686275,-0.36302956600980396,0.8039373631639217,6.487551390372548
5.266424375,-0.7864639596627452,-0.28900285278039217,0.8258782430854902,6.406379685254902
5.276440375,-0.8323570928588236,-0.25592463789607844,0.8096916253011764,6.376819528647059
5.286457375,-0.8205052109372549,-0.2710295666607843,0.730256100007059,6.440800797294117
5.296474375,-0.7767292628000001,-0.3264457619156863,0.621386149732549,6.558244067549019
5.306490375,-0.742576501662745,-0.3825532815039216,0.5612243771835294,6.639198885803921
5.316507375,-0.7258935011333334,-0.39667345889607847,0.581714734869804,6.650767044980393
5.326523375,-0.7207749402705882,-0.3659124841117647,0.6317458279501962,6.628102446235294
5.336540375,-0.7271397491529411,-0.32167303520980395,0.6589831043227452,6.59597892854902
5.346557375,-0.7153224919176471,-0.29185259081764703,0.6618710899894118,6.592574579411764
5.356573375,-0.6830378646039216,-0.2893939971509804,0.6736867363815687,6.614075228254903
5.366590375,-0.6422602711921569,-0.3229054104490196,0.7102169238129412,6.638354287529412
5.376607375,-0.6104189946627451,-0.38228323189999996,0.7493331340874511,6.638144150333333
5.386623375,-0.6149259367803921,-0.451415825645098,0.7928543327933335,6.610239772588234
5.396640375,-0.6557609303686275,-0.5215284127196078,0.8293671448129413,6.5901330791764705
5.406657375,-0.688061098682353,-0.576736619072549,0.8318722410286276,6.598739315333333
5.416673375,-0.6988546288196078,-0.6045529360529412,0.8428439392815688,6.610983580686274
5.426690375,-0.6932974680254901,-0.6192444781313725,0.8668576514188236,6.639542510960784
5.436706375,-0.7391017221196078,-0.6357224019156863,0.8949762694384314,6.6813736419411764
5.446723375,-0.8353515021803921,-0.5855644127980393,0.9480156517913726,6.712161407254903
5.456740375,-0.919896155390196,-0.46664152809215687,0.8958302380933334,6.629371269352942
5.466756375,-1.0250409090725492,-0.31569113877058824,0.7679751582305884,6.580184255960785
5.476773375,-1.1996008246196077,-0.12152452888823531,0.6314267820933332,6.5885530638627445
5.486790375,-1.3795634498254903,0.10115298987647056,0.5545477282800001,6.601865591941177
5.496806375,-1.5127429182862744,0.2968754979941176,0.6314536105152943,6.618760596294118
5.506823375,-1.6113784325588236,0.45529638176862747,0.7660485265015687,6.636434736333333
5.516840375,-1.6798400697549019,0.559361846917647,0.9011004052662744,6.653921280509804
5.526856375,-1.7095930132058823,0.5864818866235294,1.0223928225211767,6.6957752399411765
5.536873375,-1.7022855299705884,0.5563601845058823,1.1023168540113726,6.749952544294118
5.546889375,-1.7075749785784313,0.5041093737215686,1.140057741834902,6.8026885753725495
5.556906375,-1.725549640519608,0.4757467089647059,1.1483688136388235,6.824693805
5.566923375,-1.7093829261862747,0.47987190814313724,1.146386951481961,6.811831649352942
5.576939375,-1.6884199013823529,0.48471296702745104,1.1347229027564705,6.789293763627452
5.586956375,-1.6720663112058824,0.4831904208627451,1.1226389981682354,6.769308280313726
5.596973375,-1.6327236187941176,0.46995256540196073,1.1165018681094117,6.728198826235295
5.606989375,-1.5556736141784313,0.42693418709803926,1.1115510234525492,6.643827462447059
5.617006375,-1.4800435901078433,0.3706682767607843,1.089233697509412,6.56384631537255
5.627023375,-1.421149695980392,0.29868142776078427,1.051036130670196,6.48631718717647
5.637039375,-1.3551696400386273,0.2143445599470588,1.0094807715917649,6.3913215814117645
5.647056375,-1.2957065825249021,0.12074644775490194,0.9428552346315687,6.2787599295000005
5.657073375,-1.2479357234876471,0.039645922078431345,0.813069954474706,6.207167997794118
5.667089375,-1.1601931076405883,-0.027000343823529446,0.7210388674315688,6.105681602519607
5.677106375,-1.0300311177386274,-0.10013341905882356,0.6968705767060785,6.015925095362745
5.687122375,-0.8631809165621567,-0.18427044968627454,0.6681601058041178,5.906258915990196
5.697139375,-0.6731127405033333,-0.27650777719607844,0.6138694135884315,5.765724354872549
5.707156375,-0.48244798793470595,-0.37313897772549026,0.5469093535531373,5.605582453735294
5.717172375,-0.30355938438568625,-0.47286553370588236,0.4694171446452941,5.448010262617647
5.727189375,-0.14456113393470585,-0.5715035215686275,0.3825789296845099,5.311592573421569
5.737206375,-0.0031055708954901852,-0.6603930200411766,0.3017009593511765,5.20250428804902
5.747222375,0.12782283420254903,-0.7278596159039216,0.24066053802568632,5.126157662754902
5.757239375,0.2379201723790196,-0.7635682179431373,0.2054838133531373,5.098597507401961
5.767255375,0.30850057396333336,-0.778709215982353,0.20104856126568632,5.11643380367647
5.777272375,0.34615684912803923,-0.7689228801921568,0.2332491205303922,5.134406508539216
5.787289375,0.3399409292652942,-0.725550435782353,0.3079141032127451,5.091231240696079
5.797305375,0.26463851408882355,-0.6382705381941176,0.4303307308068628,4.953959113029412
5.807322375,0.1460553440103922,-0.5076495303901961,0.5745872821205883,4.755681821931373
5.817339375,0.023260441690784346,-0.37973953254705883,0.677584079767647,4.5757400105
5.827355375,-0.08807254498764704,-0.3008063060019608,0.7063346384872549,4.452980817127451
5.837372375,-0.1925146679249019,-0.2710328800843137,0.7021297509362745,4.3605553596176465
5.847389375,-0.2924290528072549,-0.2563349175392157,0.7067752319166667,4.288015691088235
5.857405375,-0.40852529459156867,-0.22990048105686278,0.7145351864656863,4.210995285245097
5.867422375,-0.5362008565170587,-0.19794675453529412,0.68715096725,4.144310311382353
5.877438375,-0.6276014302719608,-0.1829942890647059,0.6430488763088235,4.107700975833333
5.887455375,-0.6708077994288235,-0.1881789578490196,0.6248733911715686,4.093941823656863
5.897472375,-0.6713110211150981,-0.19794701822156868,0.6245896808382353,4.099335052107843
5.907488375,-0.6358320713307842,-0.18474322565294118,0.6160685420735295,4.113967294950981
5.917505958,-0.5939075924288235,-0.15296897426078432,0.608949029622549,4.124017950205883
5.927522958,-0.5507591135856862,-0.11763907688823533,0.5710467127911766,4.14062688495098
5.937538958,-0.460620621187647,-0.10341384453529415,0.4431974801245099,4.1463728295392155
5.947555958,-0.30381311606999994,-0.10255949753529414,0.24552506890882353,4.089681151892157
5.957572958,-0.1277293358739215,-0.10830288498627454,0.07842512855588238,4.062860521911765
5.967588958,0.03477390187117652,-0.1300069010647059,0.019832817489215712,4.105390609166666
5.977605958,0.2313930977143138,-0.18701015675882357,0.002843342587254929,4.105463209186275
5.987621958,0.5005043993025491,-0.29216703336666666,-0.008469265549999971,4.036687555617647
5.997638958,0.7731803067927452,-0.41611089922941175,-0.04409969259941174,3.946327702303922
6.007655958,0.9810413078515687,-0.5024588767588236,-0.17308813771705883,3.8508677881078426
6.017671958,1.1471576433613726,-0.539445943827451,-0.32601031420725485,3.752923027970588
6.027688958,1.2904312633809802,-0.5264023993607844,-0.4912710644817647,3.6803810756960784
6.037705958,1.4222840616554902,-0.4795706160647059,-0.7039820958739216,3.6589984947941177
6.047721958,1.5549270710084313,-0.41766716435882356,-0.9225363301288234,3.64908468395098
6.057738958,1.6850569241456863,-0.3707078888294118,-1.0830970769915687,3.593277713088235
6.067755958,1.7936644404986275,-0.37245159731960786,-1.1773629526582352,3.5320550019509804
6.077771958,1.8906772693025489,-0.433507432072549,-1.217597517442549,3.518345515911765
6.087788958,1.9561476357907843,-0.5074717635333335,-1.1949311757758825,3.5352519014019608
6.097804958,1.9765743677515686,-0.5614414149607844,-1.1009640784817645,3.609456492068627
6.107821958,1.995100168465294,-0.6426718290882353,-0.989366641442549,3.719351426421569
6.117838958,1.9850236789300002,-0.7427952963529412,-0.898152050697451,3.843718329013725
6.127854958,1.9419686938986274,-0.8554087028784314,-0.8366307919111765,3.9572304230490194
6.137871958,1.9000068773790197,-0.9731279325058825,-0.8233996664641177,4.060157896343137
6.147888958,1.8816165901921569,-1.1090555063392156,-0.8538396291072549,4.185673885401961
6.157904958,1.8350333436588235,-1.2645619773235295,-0.8787737846960785,4.346264619941176
6.167921958,1.7589091754058825,-1.4314007076470587,-0.833373156145098,4.462406135392157
6.177938958,1.653959602637255,-1.586829674352941,-0.8432759776509804,4.5676729271176475
6.187954958,1.5140701847745097,-1.6904781871568626,-0.9099858320235295,4.61578901654902
6.197971958,1.3581463888529413,-1.7434636146039217,-0.9171653615529411,4.657384075647059
6.207987958,1.2022992946176472,-1.7589724942431375,-0.847709325082353,4.7397421770196075
6.218004958,1.0709112811862747,-1.7504959920862746,-0.7310008848509804,4.849667654137255
6.228021958,0.9538942964215686,-1.732069328909804,-0.6414929000215686,4.926304006156863
6.238037958,0.8481758062058824,-1.6939392916745097,-0.6129799532211765,4.972705015352941
6.248054958,0.7616151075588234,-1.636852787672549,-0.6063953492211764,5.015497771411765
6.258071958,0.6637104407941178,-1.5698114563588237,-0.5939650759211764,5.063303488313725
6.268087958,0.5597178479901961,-1.5048404521235292,-0.5760845785172549,5.107700979352941
6.278104958,0.45168755787254905,-1.445982815045098,-0.5630287878584314,5.145357011647058
6.288121958,0.34954849232352947,-1.3811199499078433,-0.5399841800701961,5.1894218880784315
6.298137958,0.27043587377450984,-1.3067019203784316,-0.4913302495956863,5.2486543611960785
6.308154958,0.21248438887254908,-1.2338517128098039,-0.42040795787607843,5.319095414058824
6.318171958,0.1638859811470589,-1.165088651652941,-0.34201838195450973,5.3900112439215695
6.328187958,0.10396939897647064,-1.0925758054960784,-0.27229822044470586,5.471901243411764
6.338204958,0.02099356804705887,-1.0006262756294118,-0.20868131671333334,5.585715782803921
6.348220958,-0.0731193860941176,-0.8880932052529411,-0.1391976722035294,5.7194824614901965
6.358237958,-0.17344136489803916,-0.7693541982686275,-0.059444941183921574,5.846848718039216
6.368254958,-0.2683132715058823,-0.6532187844372549,0.03286309177686274,5.948737580960784
6.378270958,-0.350810114972549,-0.5411549473901961,0.1403099730905882,6.009424107039216
6.388287958,-0.4278676636490195,-0.43028655639019603,0.2501383737376471,6.035544857509803
6.398304958,-0.4979846963156862,-0.32611445407647055,0.3511739092082353,6.031644757529412
6.408320958,-0.5532760305862744,-0.23109690162549015,0.44038217838470595,5.998381964529411
6.418337958,-0.5869313312529411,-0.15924382775098037,0.4971556241709804,5.939819784588235
6.428353958,-0.606352749135294,-0.12284861355490194,0.5258656307415687,5.9025759114705885
6.438370958,-0.611100596527451,-0.11287434137843134,0.5206173706043137,5.896550322666667
6.448387958,-0.6046575954686273,-0.1246884686333333,0.4699944017219608,5.928814970784314
6.458403958,-0.5970142584882352,-0.14982869845686272,0.4097951554082353,5.977009830490196
6.468420958,-0.6001723740568627,-0.16141554098627447,0.3529587288003922,6.013398951196078
6.478437958,-0.6009759935862744,-0.14619014812352937,0.31754237287882353,6.028244987862745
6.488453958,-0.5944237355862745,-0.10825262188823526,0.29782229413372546,6.032281282058824
6.498470958,-0.5870157834294117,-0.053664208927450954,0.2706651303494117,6.032378252196079
6.508487958,-0.5910851474294117,-0.015623978045098007,0.22485556644745097,6.0354222110196085
6.518503958,-0.6222325085078431,-0.025259753750980354,0.17804785705529413,6.051338071352942
6.528520958,-0.683846247890196,-0.0790326406333333,0.1429640615454902,6.088557492588235
6.538537958,-0.7526264838117647,-0.15400933150392151,0.1441494182709804,6.1173365970588245
6.548553958,-0.8200387751058823,-0.21898919829019603,0.2007664940356863,6.089726152568628
6.558570958,-0.8649160291058823,-0.2824229121921568,0.2777102168984314,6.051747075980392
6.568586958,-0.8535049871254902,-0.3580021643686274,0.38015728740823523,6.09927186245098
6.578603958,-0.8362464399882352,-0.42533523736862744,0.5330117594474509,6.233073384019608
6.588620958,-0.8986188154784314,-0.4355416096039215,0.6556074293494119,6.321746994117646
6.598636958,-1.0074170270058822,-0.39702495677843136,0.6388599890552942,6.344706918764706
6.608653958,-1.137569770280392,-0.33194809501372546,0.5113878043454901,6.373239275509804
6.618670958,-1.3228232730333331,-0.19333968746470584,0.3678781631886275,6.436815960313726
6.628686958,-1.5050827047019606,0.0006631889078431697,0.20993037648274515,6.527960418509804
6.638703958,-1.6410635741725488,0.20037051716274512,0.12139876487490199,6.5909363995882355
6.648719958,-1.7312515471921568,0.3550560046529411,0.18823670479647062,6.621998050647059
6.658736958,-1.808578345809804,0.4575781946921569,0.32521928830235297,6.638960134745098
6.668753958,-1.8198750116725488,0.533121549554902,0.4589647614984314,6.618164489431373
6.678769958,-1.7689128842019608,0.5860782683196079,0.5649834231239216,6.580689254941176
6.688786958,-1.7142084584568629,0.6121459926529412,0.6771024533200001,6.558876047941177
6.698803958,-1.65754018802549,0.6191065181627452,0.7765399533396078,6.543815110647058
6.708819958,-1.608542722162745,0.6203175223843138,0.8140406438494118,6.525319304431373
6.718836958,-1.567290053927451,0.6203642083882354,0.785830213065098,6.476182690921568
6.728853958,-1.537130941084314,0.6071022990745099,0.7091459059278432,6.398356574784313
6.738869958,-1.4976979665156862,0.5849389326235294,0.6649217142415688,6.335502873764706
6.748886958,-1.4431879463705883,0.5424797545039216,0.6880338573627451,6.276512214764706
6.758902958,-1.38779462835098,0.4696958038980392,0.7349326572254902,6.210855867980391
6.768919958,-1.3284784334196078,0.3750679741058824,0.7655001608196079,6.139120731862745
6.778936958,-1.280943714469608,0.2591594207921569,0.7737832147352943,6.061219813666666
6.788952958,-1.2337109268166668,0.13715075400784316,0.777056187964706,5.992504301803922
6.798969958,-1.1863048709868629,0.016408915164705915,0.7535980910254904,5.913713776607843
6.808986958,-1.1431998120103921,-0.09491591407843132,0.6778624602411765,5.835701218862745
6.819002958,-1.0918219159907843,-0.1854857991294117,0.5984107920647059,5.756001638862744
6.829019958,-1.0378100700103923,-0.2500863879921568,0.5460773406313726,5.686860369627451
6.839036958,-0.9641858257947058,-0.2994068953254902,0.5084179010862746,5.62904265
6.849052958,-0.8566777550888236,-0.3641202207960784,0.4761902841196079,5.548390660137255
6.859069958,-0.7187838715594118,-0.42884151452156866,0.43472106254117654,5.463828773745098
6.869085958,-0.5560380603437255,-0.4801216646,0.37602705577058826,5.389548538235294
6.879102958,-0.3941791857554902,-0.5355847293058824,0.3030780417117648,5.3212995470392155
6.889119958,-0.2467782111084314,-0.5955886155607844,0.23306231204509809,5.267269310627451
6.899135958,-0.1216709098339216,-0.6470107268352941,0.17502272192745102,5.232057783294117
6.909152958,-0.0246822667358824,-0.6789596609333333,0.12185904038039222,5.221695168529411
6.91916975,0.04029272163274505,-0.6869082283058823,0.0749355761705883,5.234171790294117
6.92918575,0.051897214730784264,-0.6660795633372549,0.05789199017058829,5.254098099235294
6.93920275,0.015876895926862696,-0.6198847596509803,0.06031240926078437,5.2304546118235296
6.94921975,-0.04242819073980397,-0.5635326200823529,0.08946301499019613,5.166607496509804
6.95923575,-0.10254837352411768,-0.4923949358392156,0.16712917282745102,5.0700848437058825
6.96925275,-0.16067504272019612,-0.40018396664313727,0.26731104346274515,4.95639989717647
6.97926875,-0.2126267311711765,-0.31130854736862745,0.3708781223352942,4.843071590470588
6.98928575,-0.27001337789666674,-0.2445678202509804,0.4529521033784314,4.745288200509804
6.99930275,-0.3326263605633334,-0.20037392229019604,0.5164601772607844,4.659616903313726
7.00931875,-0.40355892073784316,-0.16827023189803922,0.5631436820450981,4.578839775843138
7.01933575,-0.46050034930450984,-0.13323811832745097,0.5853476350647059,4.52591913
7.02935275,-0.47684314794960786,-0.08510726715686273,0.5810828192803922,4.505415814215686
7.03936875,-0.4474294031947059,-0.0365287370980392,0.5665206841039216,4.491634231607843
7.04938575,-0.3874559339201961,-0.000545866254901941,0.5508725088882352,4.481651488313725
7.05940275,-0.3217521159201961,0.027108563117647085,0.5438350752803922,4.477036810882352
7.06941875,-0.2888903340182353,0.06950776713725493,0.5317137914960784,4.466685187176471
7.07943575,-0.28881948525352946,0.13864762976470588,0.4444848449666667,4.421716680019608
7.08945175,-0.2573210963319609,0.2100499520980392,0.26277697773137254,4.334549115372549
7.09946875,-0.13660725533196083,0.24551489721568626,0.08201908526078433,4.283838523941176
7.10948575,0.06137678380529407,0.23306040813529413,-0.011309332699999985,4.290757964647058
7.11950175,0.32666660894254895,0.170331180527451,-0.05387987734313724,4.259298632705883
7.12951875,0.6440431674327451,0.05826918937058823,-0.08552121922549018,4.1860110965686275
7.13953575,0.9620092628249021,-0.09664574974705882,-0.08423628785294116,4.096542997823529
7.14955175,1.2313667895111764,-0.2509655799039216,-0.14443330706862742,4.04153474127451
7.15956875,1.4338347831778433,-0.3366339504529412,-0.34654661551960786,4.02846328427451
7.16958575,1.6197819734915686,-0.33172414664901967,-0.5790915743823529,4.008367253941176
7.17960175,1.7736751976680392,-0.2691220673156863,-0.7584223879509804,3.9642444963921566
7.18961875,1.8703869722366668,-0.1733241982098039,-0.8844573327941176,3.8859772367254903
7.19963575,1.9260967363935293,-0.06703050822156863,-0.9728355545999999,3.7837130813921567
7.20965175,1.9982788566092158,-0.0233777414254902,-1.0339974991235292,3.7124264142156864
7.21966875,2.081291893315098,-0.07291073198431373,-1.0865087747117645,3.688544914176471
7.22968475,2.1587511027033335,-0.19646698478039215,-1.1071265156921568,3.715200021137255
7.23970175,2.229969596032745,-0.36583272119215693,-1.0790279387117647,3.798654510254902
7.24971875,2.279704832903333,-0.5717020287607844,-1.0160551201039216,3.9443503156666666
7.25973475,2.300252370050392,-0.795609893445098,-0.9379241888686274,4.14009729582353
7.26975175,2.28318770254451,-1.0024481877411766,-0.870034185790196,4.338259995058824
7.27976875,2.2520421285935295,-1.1663881666352942,-0.8188449771235294,4.49742203145098
7.28978475,2.2279681414278434,-1.2683394964392158,-0.7835661569078431,4.605318768784314
7.29980175,2.1963288632650984,-1.3264032650862745,-0.7546976220156862,4.675808726666666
7.30981775,2.155800187827451,-1.3682236176941176,-0.7212735163843138,4.733217605901961
7.31983475,2.090562838615686,-1.4155043295686276,-0.6747423344333333,4.774122439078432
7.32985175,1.9994932000470589,-1.4707759724784313,-0.6386919769843138,4.812082640156863
7.33986775,1.8958060525960785,-1.5275853413803924,-0.6155026018843137,4.847006157568627
7.34988475,1.7858859108509804,-1.5764671011549019,-0.5863156144372549,4.8779732163921565
7.35990175,1.6723311885764707,-1.5938638976843134,-0.55100456,4.918843685117647
7.36991775,1.5388259671450981,-1.5968175785470589,-0.5021207536960784,4.962481844607843
7.37993475,1.3844089872235295,-1.6029428006254902,-0.4332097579647059,5.000828767117647
7.38995175,1.2349516672039216,-1.5938091516843136,-0.34943078329803917,5.035667009352941
7.39996775,1.082768037047059,-1.5590249944490193,-0.2753663813372549,5.077437047058823
7.40998475,0.9398122475764705,-1.5098861062333333,-0.20889061765098035,5.125046605137255
7.42000075,0.8079919873411765,-1.4487962429784311,-0.1579653534568627,5.174973448784314
7.43001775,0.6774656356549019,-1.3911980273509803,-0.11412307667843134,5.226635645352941
7.44003475,0.5744077776156863,-1.3193821807431374,-0.05033219964117643,5.302909761058823
7.45005075,0.4968282015568628,-1.2278666404098038,0.03186555748235297,5.406868551470588
7.46006775,0.40137774877254906,-1.1272130599784314,0.0967659250666667,5.508653704647058
7.47008475,0.2731340640862745,-1.018864692809804,0.14985054307254905,5.611691948058823
7.48010075,0.12355977969411767,-0.9095383386921567,0.21717195602549022,5.739937047078431
7.49011775,-0.02716218126666665,-0.7948272492607843,0.3067489064666667,5.889587875999999
7.50013475,-0.17832228214901957,-0.6824771508882352,0.4045844700313726,6.045754851686274
7.51015075,-0.3161766568549019,-0.5795771275352941,0.4968639060901961,6.182499429019607
7.52016775,-0.42160473107254903,-0.4839171495352941,0.5906414016784314,6.284734560431372
7.53018475,-0.4922109163098039,-0.3942276029294117,0.6978999797176472,6.33579727754902
7.54020075,-0.5397378246254901,-0.32483597755098037,0.8075171410901961,6.326511565803921
7.55021775,-0.5592248258905882,-0.2773969895764705,0.8803118918470589,6.2564451004117645
7.56023375,-0.5477838570474509,-0.2600218965372548,0.8968185415137256,6.24154809327451
7.57025075,-0.508260895537647,-0.28155848734117644,0.8500081980039216,6.30568222245098
7.58026775,-0.4718717406552941,-0.33190958363529405,0.7604350109843139,6.411113254745098
7.59028375,-0.4641772405376471,-0.39614528330196075,0.6653517977294118,6.508697335156862
7.60030075,-0.4744702260866666,-0.4490031267921568,0.5814458582392157,6.57330644572549
7.61031775,-0.4892674537141176,-0.46814922679215676,0.5440511742980393,6.586305708215686
7.62033375,-0.507384266047451,-0.4605540490862744,0.5354842409450982,6.57315745772549
7.63035075,-0.5227349039690196,-0.456247322517647,0.5293274094941177,6.561552044019609
7.64036675,-0.5202548131847059,-0.4706241926745097,0.5178040149843137,6.5732297086274505
7.65038375,-0.5075228450474509,-0.4918777782431373,0.516046422219608,6.5934655223529415
7.66040075,-0.5041960201062745,-0.4953612626941176,0.5651078577686275,6.578586966411765
7.67041675,-0.5223107171258823,-0.465711832145098,0.6536892194392158,6.506549995568627
7.68043375,-0.5770070628121569,-0.4042639129294117,0.7474876790078432,6.4058927136470585
7.69045075,-0.6435261173945099,-0.35190179865490184,0.8135733803862745,6.324227692352941
7.70046675,-0.6841597431768627,-0.354652351827451,0.8500971129568629,6.2754116829392155
7.71048375,-0.6823282991964706,-0.42362615352156857,0.8583939615647059,6.308049877821568
7.72050075,-0.6777601562356862,-0.5168608211215685,0.8809897382254902,6.390232457645097
7.73051675,-0.6987507675827451,-0.5684488213568627,0.990185802637255,6.493615554762745
7.74053375,-0.7479169342258825,-0.5777507325137254,1.0749175065588237,6.554312527939215
7.75055075,-0.7650696811494118,-0.5786860921215685,0.9588520443627452,6.541055928390196
7.76056675,-0.8166303671572549,-0.5074286775333333,0.7911632664607845,6.472933417468627
7.77058375,-1.000662654527843,-0.29653625628627445,0.6858459238941177,6.423910109370588
7.78059975,-1.2341592447866665,0.021041526576470633,0.4901979964431373,6.486965607409804
7.79061675,-1.4457087411984313,0.3592228222823529,0.33903066395294124,6.5946106001745095
7.80063375,-1.6153279601592159,0.6058892082235294,0.3248861116980392,6.691814897076471
7.81064975,-1.724938890237647,0.7371145314980394,0.4122451129333334,6.784691971174509
7.82066675,-1.7912212071003923,0.7737373743607843,0.5418049198745098,6.893467336017648
7.83068375,-1.8295797558062745,0.7412450046156863,0.6834324827666668,7.014939827409805
7.84069975,-1.8525088896690194,0.6575247428705883,0.8224578512588235,7.152228276449018
7.85071675,-1.8674732903356863,0.5689880149490197,0.9344372533764705,7.271169741860784
7.86073375,-1.8615560857866666,0.5094772209392158,1.0183290879058824,7.341725246056862
7.87074975,-1.823546558531765,0.46709346044901967,1.0479908606509805,7.337885662664706
7.88076675,-1.7326299565160783,0.43648363046078437,0.914410353454902,7.303150074743137
7.89078275,-1.6231423568180392,0.40389677659803935,0.7802082012392157,7.259806924252941
7.90079975,-1.5367466556925489,0.35620804371372555,0.750704988337255,7.16637105380196
7.91081675,-1.4432744822239216,0.3021803787450981,0.7361097619647059,7.075112982488235
7.920833208,-1.3583867608239217,0.22713239771176474,0.6940958966250982,6.960342099941176
7.930850208,-1.2832596016141176,0.12693009621764711,0.637663688899608,6.864187446882353
7.940867208,-1.2027777973376472,0.022190848368627513,0.612347271589804,6.763256280564706
7.950883208,-1.1458876351121765,-0.08833008045862739,0.5977912358643137,6.670088684133334
7.960900208,-1.1153208767455098,-0.19240171385078428,0.5610409752956863,6.563483208819608
7.970917208,-1.0605447151298235,-0.28598304108607836,0.5295883895505883,6.455318152584314
7.980933208,-0.9742820037729608,-0.377033773635098,0.5019187975643138,6.339328144388236
7.990950208,-0.8563613776847255,-0.4617458263213725,0.45077988641725497,6.209805662211764
8.000967208,-0.721095873488647,-0.5322538571645098,0.3828793870211765,6.086409338525491
8.010983208,-0.577740822371,-0.5891964164586273,0.31901364986627456,5.971813967133333
8.021000208,-0.44048424807688236,-0.6628153379880392,0.25498260776823534,5.849884933133333
8.031016208,-0.331697885743549,-0.7321325890860784,0.1892247968956863,5.747502726701961
8.041033208,-0.2635431986945294,-0.7940956021449019,0.12357221225450982,5.668195512329412
8.051050208,-0.21710758862590193,-0.8421652639272549,0.06322990405843139,5.62941390407451
8.061066208,-0.19373669187060782,-0.8525237555017646,0.0328233737329412,5.656958327270588
8.071083208,-0.21116200504707838,-0.8191274635586274,0.0491810512427451,5.630187231211765
8.081100208,-0.2796538499843333,-0.7378386919390195,0.12405847988980391,5.517193249839216
8.091116208,-0.3674685528274705,-0.6164295481939215,0.2478680088447059,5.353185152368627
8.101133208,-0.45344224476080386,-0.47742127135078427,0.37984026231529405,5.195540261035294
8.111150208,-0.5417686133686471,-0.36434369907627445,0.4897036774603922,5.060387853270588
8.121166208,-0.6285586468353137,-0.2952444344880392,0.5401322550878431,4.970589948760784
8.131183208,-0.7047212117941374,-0.2662004200586274,0.5485098590486275,4.915950089192157
8.141200208,-0.773587470578451,-0.23711006359196074,0.5355959966564706,4.874845294211765
8.151216208,-0.8545741245980588,-0.17454853640960777,0.5240327837349019,4.809084784094118
8.161233208,-0.9367848874804117,-0.09270056458999995,0.5234299358133334,4.723044890407843
8.171249208,-0.9862763570686471,-0.03576486143705877,0.5056454946956863,4.6694573713490195
8.181266208,-0.993665494951,-0.03837245590764701,0.4793704808290197,4.674262132231373
8.191283208,-0.9675726333235491,-0.09980838259392152,0.454292016534902,4.7119758648588235
8.201299208,-0.918509896486294,-0.18555651604490192,0.4297072148819608,4.774366033682353
8.211316208,-0.8609863819196275,-0.25367751852725484,0.3995527482721568,4.865957852292158
8.221333208,-0.8060192413706078,-0.272899001762549,0.3619786379407843,4.919416818037255
8.231349208,-0.7581510907039412,-0.24014766917431365,0.27317255115647066,4.921131303566667
8.241366208,-0.6867335713372744,-0.1979495176449019,0.0796488712937255,4.865696326684314
8.251383208,-0.5754189919059018,-0.15617366121352935,-0.12121246803960783,4.812898035037255
8.261399208,-0.4927510398215882,-0.09546689376254895,-0.15871536558862742,4.798514943743137
8.271416208,-0.3644371082921765,-0.0689040249194117,-0.16182349319647055,4.799894299056863
8.281433208,-0.08160787191962741,-0.1510355981664705,-0.21454146212,4.757166124194117
8.291449208,0.2752002565509608,-0.33222340716647053,-0.1665062759827451,4.610800775233334
8.301466208,0.6223832376293922,-0.5477063856762744,-0.15915536284549017,4.452744308762744
8.311482208,0.9255016358842941,-0.6976774466370589,-0.2866967453356863,4.35852107817451
8.321499208,1.1603480989627255,-0.7605191586370588,-0.5225120175317647,4.3016777079980395
8.331516208,1.3453131003548822,-0.7579004773625491,-0.7763692634337255,4.2349067502725495
8.341532208,1.5104182630999805,-0.7010329917154902,-0.9898065419435293,4.134742553390196
8.351549208,1.6590577697470394,-0.6027850131272549,-1.1636589257670586,3.992691389507843
8.361566208,1.7861770807274315,-0.5241581806762744,-1.30332845392,3.8457734681745097
8.371582208,1.866703716513706,-0.5057810927154901,-1.4047770034494118,3.739070385233333
8.381599208,1.877870230239196,-0.5506862069899999,-1.4329205008023527,3.734747985292157
8.391616208,1.8078685682823334,-0.6545208905703921,-1.2693954563709804,3.795411866350981
8.401632208,1.7288560833097846,-0.782471807452745,-1.0886888388219609,3.8760167393117646
8.411649208,1.682725816831353,-0.9123553437645099,-1.0162766249592157,4.007596496900001
8.421666208,1.6494567677548824,-1.0384040467566666,-0.9786257842729412,4.104667089311764
8.431682208,1.6279276049176274,-1.1424473842135294,-0.9569460542078432,4.20248912625098
8.441699208,1.5954535564725294,-1.2310854982684314,-0.9463426889784314,4.282323433682353
8.451716208,1.536181512313706,-1.3068253195762745,-0.9816228162176471,4.368629102843137
8.461732208,1.467024751519608,-1.37988997092549,-1.044518997590196,4.4283586049411765
8.471749208,1.4019893505254903,-1.4558539813568627,-1.0835588644327452,4.478579943078431
8.481766208,1.3224201690666668,-1.5119217742588233,-1.0760377858445098,4.531761457843138
8.491782208,1.2383307760431375,-1.5464536528050983,-1.0357507680935294,4.589854829803922
8.501799208,1.1470044561901962,-1.5742214608266667,-0.9871569320837255,4.641423672509804
8.511815208,1.0360277928176471,-1.6025719381403922,-0.9541998233543137,4.676677075333333
8.521832208,0.9142322513078434,-1.6322142144541176,-0.9269256923170588,4.7116383395882355
8.531849208,0.799325925072549,-1.627185184787451,-0.873994299297451,4.772719928196079
8.541865208,0.7374101469156864,-1.6041205216109804,-0.812272271052353,4.815312380372549
8.551882208,0.7191420808666666,-1.5704157489050978,-0.7595517124307843,4.849141923313725
8.561899208,0.6893072577529412,-1.522444836279608,-0.7282680309641176,4.874027702490197
8.571915208,0.6396371499882354,-1.4663151087384312,-0.67028069747,4.896406827019608
8.581932208,0.5853217274784315,-1.393807949269804,-0.5817749253915686,4.942072397529412
8.591949208,0.5223921438666668,-1.3185555564580391,-0.4910119016268627,5.017441416215687
8.601965208,0.4532093758666667,-1.2470009084188234,-0.4147470920915687,5.115653052411765
8.611982208,0.38270806862352946,-1.1740621327129412,-0.35268156930725497,5.223122072058825
8.621999208,0.3089048250745099,-1.0943403116933332,-0.2871954941582353,5.339394055960785
8.632015208,0.21621792191372557,-1.0098206209286273,-0.21465446668764707,5.458217908980392
8.642032208,0.09884199979411772,-0.9073117189658823,-0.12405389521705881,5.570616297529411
8.652049208,-0.03778503861764698,-0.7928245320403922,-0.010811442942549028,5.660646443470589
8.662065208,-0.18394089455882345,-0.6900830714188234,0.10482757093980391,5.734487246411765
8.672082208,-0.3303541770294116,-0.6035735617090195,0.1989770182143137,5.7991958207843135
8.682099208,-0.46892439997058816,-0.5197370320972549,0.2675842883319608,5.845750166117647
8.692115208,-0.5893744513039215,-0.442597903312941,0.32020642025352936,5.851565588058825
8.702132208,-0.6782589022450979,-0.3653947073913725,0.3605126162947059,5.81784909617647
8.712148208,-0.7258897362254902,-0.2879326173913725,0.3787764173162745,5.752114885686275
8.722165208,-0.7484863240294117,-0.22985214406980384,0.35973935355156866,5.714635614490196
8.732182208,-0.746229682872549,-0.21582999352078425,0.30101795659078434,5.738606416372548
8.742198208,-0.7039696655,-0.23564092193254896,0.22743484639470588,5.816326765450981
8.752215208,-0.631702453990196,-0.2545952561874509,0.1754383665515686,5.901842753196079
8.762232208,-0.5507582954607841,-0.2544611371090196,0.1574223957672549,5.967653332686275
8.772248208,-0.4671086531862744,-0.24156658199137251,0.16068681600254903,6.019810667470588
8.782265208,-0.41604851893137246,-0.24130819238352938,0.16411866153196078,6.053886170156863
8.792282208,-0.41355407379411757,-0.25317463501098036,0.16198230676725492,6.063418086882353
8.802298208,-0.4568978668333332,-0.2516576609129411,0.17415188166921566,6.025948673686274
8.812315208,-0.5379731864215685,-0.21493425739921562,0.20470711470843136,5.935250418411765
8.822332208,-0.6409467241764705,-0.14322331673254898,0.26972921329666666,5.845011466686275
8.832348208,-0.7434827583627449,-0.035123284242352906,0.3695521394241177,5.791152170627451
8.842365208,-0.8473499455784312,0.10007799660078436,0.46283360194352935,5.772546582117648
8.852382208,-0.950670549990196,0.2093882307576471,0.5531781169631372,5.762131006627451
8.862398208,-1.0685954640490196,0.2457213498243138,0.6456346505905882,5.778465990156863
8.872415208,-1.18496732322549,0.21354000609882356,0.7356786989788234,5.8612016330588235
8.882431208,-1.2644036252862743,0.1234743344713726,0.8240342778611764,5.998871096294117
8.892448208,-1.2613495672274508,-0.057609967410980345,0.7889146366258823,6.157998848529411
8.902465208,-1.0726013886392156,-0.31379117190117645,0.5162195307043137,6.4284336699019615
8.912481208,-0.9755730761882353,-0.44361596086196076,0.406101950847451,6.504081868882354
8.922498208,-1.0888678725019607,-0.34559812180705873,0.3180754899513726,6.5091988192941175
8.932515208,-1.3138928219921566,-0.0852548461992156,0.06770801140235298,6.73297554582353
8.942531208,-1.539752462829412,0.21006430652627456,-0.07967539149960783,6.965105041784314
8.952548208,-1.6742495612215686,0.45181450260470596,-0.012303245356470566,7.085345793078431
8.962565208,-1.7284502005941176,0.6158225385262747,0.1750486066631373,7.18567028717647
8.972581208,-1.7495705040450982,0.701840194222353,0.34325777385921574,7.2568935969999995
8.982598208,-1.741202737162745,0.6991392048105883,0.48150005685862746,7.32586302145098
8.992615208,-1.706387128201961,0.6238987586537257,0.6003955743096079,7.42235845
9.002631208,-1.6578014496333333,0.5257441176901961,0.6909848125056863,7.506631018705882
9.012648208,-1.5888616993725488,0.43662999441764716,0.7571336752703922,7.552582479000001
9.022665208,-1.5032577800529412,0.35890511218235305,0.8063873638194119,7.551139382764705
9.032681208,-1.4137216139313724,0.3020588484901962,0.8394424076625492,7.512733648960784
9.042698208,-1.3424036778019608,0.26045279060784327,0.8433388545841177,7.458807490607843
9.052714208,-1.3211265256647056,0.22014926305882362,0.8327333811919607,7.4186138627058815
9.062731208,-1.328709750980392,0.181700082509804,0.8101310299880392,7.377485816784314
9.072748208,-1.318097951717647,0.1519175532941177,0.6874653425409804,7.443091671098038
9.082764208,-1.3012820330823531,0.10545508471764713,0.5565348995370588,7.4878281925882355
9.092781208,-1.2809971448313726,0.024650347888127522,0.5177824204684314,7.401226747986274
9.102798208,-1.2370032990411763,-0.06509652436177445,0.482659686507647,7.307009859633333
9.112814208,-1.1866509831509804,-0.15973912124608816,0.4317391746115687,7.193181201690196
9.122831208,-1.1263689070137255,-0.2692246228323627,0.36670420641549023,7.069993765145097
9.132848208,-1.0576279405764706,-0.3630915120323627,0.29426962120960787,6.948069466184314
9.142864208,-0.9680719111215685,-0.4317557437774607,0.24213233811549026,6.834603435968627
9.152881208,-0.859069451182745,-0.4843255373853039,0.21636994735274515,6.732297236909805
9.162897208,-0.7382857158866667,-0.5511461305813823,0.20267465617627453,6.6242372850274505
9.172914208,-0.6134058469454902,-0.6259625160127548,0.18898073507823532,6.516657083596079
9.182931208,-0.4997879503984313,-0.6955075906794216,0.173138908117451,6.412502686027451
9.192947208,-0.4113175790709803,-0.7444738026009902,0.1562805771056863,6.3259514150274505
9.202964208,-0.34757314870039213,-0.7608199117970685,0.12974673796450983,6.285061033203921
9.212981208,-0.29784000709254893,-0.7633276794049116,0.07526345451156866,6.30428483649804
9.222997208,-0.2687406648180392,-0.7462535574637352,0.033157058411568664,6.356265784047059
9.233014208,-0.2640053258964706,-0.6954301208049117,0.054230753254705895,6.35503502222353
9.243031208,-0.30496683144549014,-0.6042282549225588,0.13299288281352944,6.2711654797137255
9.253047208,-0.39996258868078427,-0.4881704141774607,0.23783110050176473,6.115662669890196
9.263064208,-0.5255256932886274,-0.36599396670687245,0.32987477052137254,5.9485891889098035
9.273080208,-0.6561317820729411,-0.2568130706676568,0.390453882344902,5.801480136086274
9.283097208,-0.7930385294847059,-0.15769303147157837,0.4258867824429412,5.662504491419607
9.293114208,-0.9053494845043137,-0.05849021404412738,0.45721759705078435,5.53682410312549
9.303130208,-0.9809013636807842,0.03203223977744124,0.47718872771745097,5.434964432164707
9.313147208,-1.0145085624062744,0.08360386781665692,0.47881437977627456,5.3859847368901965
9.323164208,-1.0055873909552941,0.07187412391077456,0.4656070444821569,5.404481001654902
9.333180208,-0.9655882453964706,0.011368558018617707,0.43249109212921566,5.42607657385098
9.343197208,-0.9028345397396077,-0.08385639860687248,0.384987475217451,5.413261275949019
9.353213208,-0.8127818695631372,-0.21023343994020582,0.3420227709137255,5.386432826439216
9.363230208,-0.7025882758964704,-0.3240694534107941,0.27694283648235296,5.391586641654902
9.373247208,-0.5598923263670588,-0.3754356148696175,0.17438233571764708,5.405800091909804
9.383263208,-0.3954170921905882,-0.3513279345558921,0.04224040981568629,5.376631918576471
9.393280208,-0.2349218857396078,-0.25193793741863724,-0.1194662995960784,5.293879894458823
9.403297208,-0.1146651078180392,-0.04014378377157837,-0.18699977443921567,5.157800311733333
9.413313208,-0.13625979242588232,0.2692956494441079,-0.05271260255686275,4.867579242615686
9.423330208,-0.060383060288627416,0.4666561346009706,-0.10106417466078432,4.756967537988235
9.433347208,0.21841835026039222,0.4358296366048922,-0.16504602492156864,4.732030050733333
9.443363208,0.591583296534902,0.21569849999704913,-0.03275998235294119,4.527281527694117
9.453380208,0.9524085883388236,-0.05333866806177446,0.029010829294117635,4.343880819870589
9.463396208,1.2172255915741177,-0.25919843663040193,-0.10980698884313726,4.265837726164706
9.473413208,1.4138694202407844,-0.38238882570883326,-0.36069350523529414,4.197350854615686
9.483430208,1.5891953554368627,-0.4345784241696176,-0.5835206553921569,4.143022826694117
9.493446208,1.7261457677898042,-0.40636816538530385,-0.7739085996274508,4.068915908870588
9.503463208,1.8089129792211764,-0.32946339528726465,-0.9560740630980393,3.9335830600470594
9.513480208,1.8375278882752941,-0.2579873063264803,-1.1082481141509803,3.7799310370470587
9.523496208,1.8341644666458823,-0.2296375856990294,-1.2132567007980393,3.684085261164706
9.533513208,1.8181005257341176,-0.26095302556177447,-1.2630100626019607,3.666849082694118
9.543530208,1.8083200600890197,-0.3475494638892254,-1.2568284779352943,3.7162399375372543
9.553546208,1.8149423571380392,-0.4729893456147157,-1.2166757627,3.8026946506352943
9.563563208,1.8273911451870588,-0.6285950702029509,-1.179758827817647,3.9097455859686274
9.573579208,1.8240429865086276,-0.7917549044186373,-1.1399593768490197,4.033955898203922
9.583596208,1.7922012341733333,-0.9454596877519705,-0.9828354743000001,4.048996803772549
9.593613208,1.7444392247929412,-1.0715671839205978,-0.8432689947313725,4.0591353398901955
9.603629208,1.683829558385098,-1.1644591129734314,-0.8325961966843137,4.165558892452941
9.613646208,1.6260217286733334,-1.248163977037255,-0.8486028463509804,4.247608868649019
9.623663208,1.59000443521451,-1.317078710388235,-0.8524298575941177,4.315705703631372
9.633679208,1.5535470742929414,-1.358623338115686,-0.8202393303000001,4.369368339823529
9.643696208,1.5167912660321567,-1.3945233848764707,-0.7506544257803922,4.420805466117647
9.653712208,1.460370375812549,-1.4357120318215686,-0.6876277698039215,4.470619818862745
9.663729208,1.3846461857756862,-1.4847800196960783,-0.6552054176098039,4.50468148854902
9.673746208,1.303288832616863,-1.5050190445588234,-0.6390370092960784,4.538238537823529
9.683762208,1.2159813771658825,-1.498275198519608,-0.6358745341,4.5744768787843135
9.693779208,1.1440802629717648,-1.4766762717941178,-0.6356623804921568,4.613724620196078
9.703796208,1.1013898640168627,-1.4564723990294117,-0.6246717590450981,4.64815838262745
9.713812208,1.0582064108031373,-1.4333323182450979,-0.5901264290333333,4.6822702625882355
9.723829208,1.0003230101364706,-1.3889401996764703,-0.5121304509745098,4.707364526215686
9.733846208,0.9176997347835294,-1.3289530410490196,-0.4336936301117647,4.732175282156863
9.743862208,0.8158353450384314,-1.261055344872549,-0.38395305193529417,4.779691738117647
9.753879208,0.708390968861961,-1.1931343400882353,-0.33740581878823533,4.852323566235294
9.763895208,0.591086335469804,-1.1161606645588236,-0.27119905998627447,4.955601792058824
9.773912208,0.4549254075678431,-1.039214780519608,-0.1931105612019608,5.081239807196079
9.783929208,0.29419935360705884,-0.9657090885980392,-0.10595454147647063,5.215326678078432
9.793945208,0.12747891474431375,-0.8861420009509803,-0.011495707692156874,5.352095235803921
9.803962208,-0.029567335902745042,-0.7873226920843137,0.08771719905294117,5.491572403392158
9.813979208,-0.17760587490274504,-0.6695804404745097,0.1908701890137255,5.625737373784314
9.823995208,-0.3186387387066666,-0.5401852040039214,0.2896192797196079,5.7371702312156865
9.834012208,-0.44641811435372547,-0.41564603425882346,0.37773506544509805,5.810517635058824
9.844028208,-0.5590959950203921,-0.32408204228823523,0.4464315084862745,5.841844548588234
9.854045208,-0.6471377561380391,-0.274728503917647,0.4959390292588235,5.82231969682353
9.864062208,-0.7130793007241176,-0.2521414206919607,0.5159567198078432,5.765677055509803
9.874078208,-0.7497612950574508,-0.25880981471156855,0.4722468452,5.770391196490196
9.884095208,-0.7333978161947058,-0.3189911467703921,0.3545983095333333,5.877945138352941
9.894112208,-0.6713931159398039,-0.42708188102529404,0.22405086202352942,6.045030195607843
9.904128208,-0.6073593745084312,-0.5283842845547058,0.16132237965098034,6.1707549664117645
9.914145,-0.5818619314103921,-0.5822835286331371,0.16887679884705878,6.213281264647059
9.924162,-0.6171046020770588,-0.591234755907647,0.20187328741372546,6.1755692762352945
9.934178,-0.6733675773319607,-0.570845125107647,0.2168454872372549,6.11617953572549
9.944195,-0.7077040213123529,-0.5360261597292156,0.220982260472549,6.076136557392156
9.954211,-0.7151348693319608,-0.4812995690350979,0.24505505813921566,6.044954245215686
9.964228,-0.7435639286456863,-0.4228706589841175,0.30994646571588236,5.983007598529412
9.974245,-0.7949579389005883,-0.3689651893429411,0.4110210800688235,5.893455585058824
9.984261,-0.8570109130966667,-0.3112622741625489,0.5176961604315686,5.792192357529412
9.994278,-0.9125519922731372,-0.27024191239058815,0.5938211183368627,5.7020164755098035
10.004295,-0.9271602057829412,-0.2775672582925489,0.6474417024594118,5.675757584294118
10.014311,-0.8859427899594118,-0.31962248552784306,0.7149523473613726,5.731012047803921
10.024328,-0.8207856550919607,-0.3684735302337254,0.8084337674731372,5.838404972470589
10.034344,-0.7794039869782352,-0.41644712570431364,0.8883948084143137,5.928163123352941
10.044361,-0.7545776093292156,-0.4594499114298038,0.8476445048829411,5.955606841000001
10.054378,-0.7638593132174509,-0.4936383405866665,0.6338418671182353,6.011270485588235
10.064394,-0.8911654900233333,-0.4632852033513724,0.4251132137849019,6.052962401960784
10.074411,-1.1387756566213725,-0.3064631661749018,0.14801733292215682,6.222281723137254
10.084428,-1.3717497523331372,-0.06409032188078419,0.01853262258882353,6.351570644803921
10.094444,-1.5021279315684313,0.17483339894274522,0.11779314400058824,6.455978849392157
10.104461,-1.5584344858037256,0.3536989346682354,0.2607416301770588,6.545177047862746
10.114478,-1.5895742225684313,0.4552046264015688,0.37242250757117645,6.591663986568627
10.124494,-1.625853787999804,0.5009419714407845,0.4703755457084314,6.63475504317647
10.134511,-1.6507844352547056,0.5068997682643138,0.572978951847647,6.694260841568628
10.144527,-1.6550560211958822,0.4827710379701962,0.6665897559260784,6.768305306137256
10.154544,-1.657617239235098,0.42789010371529423,0.7199669239064705,6.833380508196078
10.164561,-1.6342840856860783,0.38431477238588246,0.7526567575535295,6.8578614284705885
10.174577,-1.5870162634703922,0.3607132889643139,0.7839628877300001,6.854008518666667
10.184594,-1.5377675622547058,0.33418410465451,0.8079627299064706,6.8395918473725485
10.194611,-1.4838869203547056,0.30518380676627466,0.8356642436711764,6.818688507431372
10.204627,-1.4406015005743136,0.2700287526054903,0.8603400870437253,6.792788079921568
10.214644,-1.4205842256213725,0.22586814939960798,0.8322389648045098,6.748834065196079
10.22466,-1.405837785660588,0.17627464589372566,0.6997073936398038,6.790938858333333
10.234677,-1.3836011240586275,0.09243633919176485,0.6393133347182353,6.735905472333333
10.244694,-1.3397992274625492,-0.012919216639607704,0.6523919280711764,6.670549643078432
10.25471,-1.2721260356939217,-0.1121022911160783,0.6563456117966666,6.588856145823529
10.264727,-1.1791479118115686,-0.19516607105137246,0.6348772270299999,6.495542610882353
10.274744,-1.0632272455762746,-0.27250155163960776,0.5832170767417647,6.387012427215686
10.28476,-0.9211423988899998,-0.3563710778749019,0.5210906855986274,6.255171700588234
10.294777,-0.7604179199684313,-0.4411061181592156,0.45690430891823525,6.104417915843137
10.304794,-0.5905547144782353,-0.5238775487670587,0.39451654651823526,5.951275968568628
10.31481,-0.4289439395370587,-0.6136602839435293,0.3338185950373,5.801373191941177
10.324827,-0.28297850792921564,-0.7119193836886273,0.2744569974667117,5.653850919980392
10.334843,-0.14954083043901958,-0.8085110753709803,0.21889982842161368,5.520426195294117
10.34486,-0.03697894532137251,-0.8754138276847058,0.16857395541573136,5.425023109078431
10.354877,0.048573352255098075,-0.8902661223121567,0.13063000296279018,5.390165330098039
10.364893,0.0967769905276471,-0.8498645679199999,0.10949435917063331,5.420642162980393
10.37491,0.10771564699607847,-0.7766517756358823,0.11199870015102546,5.4744107652941185
10.384927,0.08150050833921572,-0.6831194962241174,0.16684165330788822,5.434137790803921
10.394943,-0.006806144547058779,-0.5412528595966666,0.2858077844843588,5.276030065372548
10.40496,-0.14950201595294113,-0.3564820258907842,0.4131628242294569,5.059458253803921
10.414976,-0.29401670033529403,-0.19440788204764697,0.47482999111180985,4.881088520647059
10.424993,-0.39632958155686265,-0.1000248786064705,0.4818287470922019,4.766683293392157
10.43501,-0.4392479581450979,-0.07052158259666656,0.4835055393667118,4.7172838399019605
10.445026,-0.45358601024313716,-0.07502356029862736,0.5210394988151431,4.693400878313725
10.455043,-0.486807195262745,-0.07812752606529402,0.5723845357714177,4.646900078490195
10.46506,-0.5488310079098039,-0.07029865463392147,0.5823545486537706,4.584582614647059
10.475076,-0.5927209423803921,-0.04890254604960775,0.5315634149986725,4.561116876529412
10.485093,-0.5945729734196078,-0.046111715879019514,0.4444811074496529,4.5890045634705885
10.49511,-0.5698220477921567,-0.07614514798098031,0.352342984832006,4.64800353927451
10.505126,-0.5375721082039215,-0.11134733528235284,0.27858465880906474,4.719139453392157
10.515143,-0.5245967239294116,-0.11959554379215678,0.21514559068651573,4.756267746960784
10.525159,-0.5215078348117647,-0.10139942141960777,0.12991272305906473,4.753232374117647
10.535176,-0.4928010786156862,-0.0673933909882352,0.005407922902201999,4.7264932410784315
10.545193,-0.42262878689019595,-0.013134004301960697,-0.1214308335095627,4.695620892411764
10.555209,-0.3269805721039215,0.06639947905098048,-0.15129679160564113,4.6913005899215685
10.565226,-0.19411302392745092,0.16154675944313734,-0.04829430438995485,4.620411527352941
10.575243,0.0528672772490197,0.20485285514901966,0.031998227806123575,4.5472916756862745
10.585259,0.41821462215098043,0.1379788115215687,0.20378199421788828,4.346952198882352
10.595276,0.787742164464706,-0.013326767498039124,0.24894088625710395,4.200279075882353
10.605293,1.0810387423666667,-0.1699842915372548,0.06744012510024122,4.09829169745098
10.615309,1.3080226666803922,-0.2711768018117646,-0.18482230993897442,4.028910576470588
10.625326,1.5080672760921567,-0.29439726461176463,-0.4305198008017196,4.0204801508627455
10.635342,1.6961483160333335,-0.2688839709725489,-0.6291531560566215,4.006201725647059
10.645359,1.844078750307843,-0.22295854049999994,-0.787995601135053,3.9545086249019605
10.655376,1.9481826494254901,-0.16432091923529402,-0.9231537157860332,3.8604965336470585
10.665392,2.0264852480137256,-0.0868296619311764,-1.0169088887762292,3.747186283470588
10.675409,2.0964624290529414,-0.05012422427235286,-1.0832580473448568,3.6768717288627455
10.685426,2.16559311097451,-0.08881085909392149,-1.1366373936781902,3.6623126749803925
10.695442,2.213525976582353,-0.1902300120194117,-1.1554044335997589,3.7066028459019607
10.705459,2.235661088670588,-0.32623215505274505,-1.1279491420507393,3.797703217627451
10.715476,2.2496667480464705,-0.48230030267627444,-1.067826924207602,3.9293682132156857
10.725492,2.264095403315098,-0.6543979958233334,-0.9660969975017195,4.098348050529412
10.735509,2.274636095854314,-0.8338768012782352,-0.7805491834821117,4.163790267352941
10.745525,2.258918328742549,-0.9853146534782352,-0.6959746435409352,4.292045829156862
10.755542,2.2040638875386276,-1.1109803867645096,-0.6968376037174058,4.4019223735686275
10.765559,2.1180151326915686,-1.2340476518174508,-0.6923621247958371,4.509633553431373
10.775575,2.025196964554314,-1.339477237980196,-0.6809676212644646,4.591850440921569
10.785592,1.9429096490052944,-1.4167023323135293,-0.6534712817017195,4.637965943392157
10.795609,1.8494927489268627,-1.4652064880782352,-0.5845804187546607,4.700349266392157
10.805625,1.7535881237111766,-1.4998479044664703,-0.4776203066821117,4.795255924039216
10.815642,1.6613715165543137,-1.520011591970392,-0.3924017697526999,4.864680095372549
10.825659,1.576268290868039,-1.526641245327255,-0.34843739723254896,4.902622331352942
10.835675,1.4858958812013727,-1.5120019039939214,-0.33742261374235283,4.94445408927451
10.845692,1.3891887843974513,-1.483676455037059,-0.3240579324521568,4.995964994039215
10.855708,1.301519447926863,-1.4639048978605882,-0.28858366905411753,5.038059859333333
10.865725,1.2496906513307846,-1.4584489526645097,-0.2412254385639215,5.048804947784313
10.875742,1.209993886352353,-1.4668831599782355,-0.20097511208745092,5.04254778854902
10.885758,1.1640729494896078,-1.4586087421939216,-0.15377417600901952,5.057812418607843
10.895775,1.0957886534601962,-1.418956915507647,-0.08533666144039205,5.112619670960783
10.905792,1.0287680296013726,-1.362234796233137,0.00359186432431382,5.182294621254902
10.915808,0.9666942196935295,-1.299011249605686,0.1134434359909805,5.25474189727451
10.925825,0.8740707165464707,-1.2169053582527447,0.22618317103019614,5.350116886882352
10.935841,0.7444497417092157,-1.109577398988039,0.32319752469686286,5.482216740764706
10.945858,0.5856893611405884,-0.9858578598409803,0.3981173685811766,5.633383640509803
10.955875,0.39779924712098047,-0.8553944861154901,0.45488780477980406,5.783511646882354
10.965891,0.1968474823170589,-0.7338939538449017,0.5077285939019609,5.9227455177058825
10.975908,0.0034492538856863704,-0.6384067324017647,0.5777788966666668,6.0466935915294115
10.985925,-0.17171115348686267,-0.5685493590958823,0.6638504613921569,6.13439519127451
10.995941,-0.31911947154568615,-0.494951533397843,0.746941482472549,6.170373644529412
11.005958,-0.43952242983980383,-0.4229646958684313,0.8132834982549021,6.15793630217647
11.015975,-0.5344808279574509,-0.36308261514294105,0.8526762015686274,6.1101305842745095
11.025991,-0.5977628266927449,-0.3199308400782352,0.8445328588431373,6.079717611019607
11.036008,-0.6413866067907842,-0.32317135552921555,0.775919039254902,6.10732621162745
11.046024,-0.6430033504574509,-0.3717598602547058,0.6531134686274511,6.202351490411765
11.056041,-0.6174837624574508,-0.4397518571174509,0.5396320056666667,6.3074732942745095
11.066058,-0.600630401575098,-0.5024296521566666,0.4860701917843138,6.369146254019609
11.076074,-0.5968213189280391,-0.532444808842941,0.48436230035294126,6.385083890176471
11.086091,-0.5986671702613725,-0.526573046352745,0.49771983457450986,6.3791930640392165
11.096108,-0.5966345863986274,-0.5026353136272548,0.5131828250235294,6.37176465609804
11.106124,-0.5865439431633334,-0.47477837570568615,0.5540249642352941,6.369296154490196
11.116141,-0.5791940045554902,-0.45155597529392144,0.6350483181372549,6.367362196627451
11.126158,-0.5705111874182353,-0.4217638726833332,0.7623126228627451,6.353082358666668
11.136174,-0.5542159833986274,-0.37110110834215676,0.9103284035882354,6.324494886784314
11.146191,-0.5486165463790195,-0.29123902294215676,1.0264362151176472,6.3116809425098035
11.156207,-0.5499740405358824,-0.1984589476892156,1.097328465337255,6.327119757980392
11.166224,-0.5478774668888234,-0.13849290781666654,1.180014721517647,6.369656309705882
11.176241,-0.5731232332061666,-0.1468147109933332,1.277490489292157,6.452132167823529
11.186257,-0.6476004657944019,-0.207555529867843,1.3548388566843137,6.5446107601176475
11.196274,-0.7299326558532254,-0.2797658800835293,1.4171710927431374,6.633400077313726
11.206291,-0.7656813227767548,-0.3945819900639215,1.3186020619,6.737917421588235
11.216307,-0.7108545569610686,-0.5863001644168626,0.921502146017647,7.030288907215685
11.226324,-0.7798539459604803,-0.6673859689070587,0.6408866310960786,7.143514244921569
11.236341,-1.0092656284957746,-0.5274061485345096,0.3906277502529413,7.236237322862745
11.246357,-1.2373796247408724,-0.2624475968286273,0.269781647527451,7.3196587046470585
11.256374,-1.400271180682049,0.030475137602745263,0.26437781419411766,7.395448472196079
11.266391,-1.4830923871526371,0.2867480058772551,0.33486130105686274,7.453396702411764
11.276407,-1.505416127838912,0.48512302885764724,0.4539558559980392,7.504394977431372
11.286424,-1.5365520925840097,0.6183209045635296,0.6027045966647059,7.593038892745098
11.29644,-1.5897488108977353,0.6680384149047061,0.7366107393117646,7.704080421921568
11.306457,-1.615733126427147,0.6348945850811767,0.8066800340764706,7.781560265019608
11.316474,-1.6218196766428332,0.5539843346752943,0.8188849617039216,7.824404640882353
11.32649,-1.6154842930153823,0.463236189787059,0.8260574545274509,7.85819176045098
11.336507,-1.5866176814075392,0.40135251541843153,0.8499208530764706,7.868738415019608
11.346524,-1.5358427895408726,0.359217181332157,0.8967020809019608,7.859429742352941
11.35654,-1.4816121502291077,0.32753219742431383,0.9324680085784314,7.83107011409804
11.366557,-1.4438167858369508,0.29036214689098055,0.9483890165980393,7.795895023647058
11.376574,-1.435170141170284,0.23392719469294135,0.9632052849313727,7.764663012137255
11.38659,-1.4296769557977353,0.16788077285568642,0.9794848992392158,7.724553361431372
11.396607,-1.4153626408369508,0.08987590073215702,0.9680966785921569,7.656743404392156
11.406624,-1.377119553136951,0.004803854459607995,0.843355966219608,7.624064701627451
11.41664,-1.3176979349134215,-0.06583000614823514,0.6022887478666666,7.688216406372549
11.426657,-1.2324490676977353,-0.13714605338352925,0.5108246744941176,7.607255392156863
11.436673,-1.108189724501657,-0.22646023167568616,0.4964158453176471,7.524731857333333
11.44669,-0.9592167545800883,-0.3195355684011764,0.4777814913176471,7.4134026427450985
11.456707,-0.7929452557565588,-0.40560039163647044,0.44671026443529416,7.27801465527451
11.466723,-0.6173411020310685,-0.4947102498717646,0.3977868618666667,7.116995806039215
11.47674,-0.453223892299696,-0.5765479259894116,0.3360059078803922,6.952818113333333
11.486757,-0.29663832770361764,-0.6358533565972548,0.26853780291568635,6.813893453176472
11.496773,-0.1368805296840098,-0.6718780063619607,0.20377266654313728,6.71625647627451
11.50679,0.004010097727754925,-0.6976205337933332,0.16153050899215687,6.661815327019608
11.516807,0.11645207192383336,-0.7092036043031371,0.15693113645490198,6.641743682588235
11.526823,0.20211585643363728,-0.6981246784207842,0.18170967441176472,6.653341767294116
11.53684,0.24042702261991178,-0.6577210947011763,0.24029424079607847,6.639500251137256
11.546856,0.22951405450226472,-0.5583527666619607,0.33921105198823537,6.56321754882353
11.556873,0.16191200673755884,-0.42219019209333325,0.47401644051764713,6.415838123235294
11.56689,0.06413683287481375,-0.2841482994658822,0.5909040900274509,6.249402309098039
11.576906,-0.029872040478127415,-0.16034323046588222,0.6511392021431374,6.116775240960784
11.586923,-0.11431862671342152,-0.06963724287764693,0.6624905136647058,6.026361737647059
11.59694,-0.195118023654598,-0.013879639034509684,0.662251975927451,5.9515576175098035
11.606956,-0.28468630645851956,0.024446417485098158,0.6634343689196079,5.86733106217647
11.616973,-0.39144837847812736,0.055635844126274626,0.6412029569156863,5.764253442862745
11.62699,-0.49967003018400974,0.07240662168901972,0.5776810475039217,5.662967322294119
11.637006,-0.5924860485957744,0.05133376094117658,0.4864467926215687,5.5927835259803915
11.647023,-0.6766315118114608,-0.019759174882352824,0.38185336401372555,5.554222851764705
11.65704,-0.7299272372428334,-0.13020710521568615,0.2742138227,5.540837485352942
11.667056,-0.740930407282049,-0.2608057559999999,0.183347048127451,5.542641349196078
11.677073,-0.7157203892428333,-0.3671326260784312,0.07152622593137258,5.553338105627451
11.687089,-0.6333771295921568,-0.4118971893431372,-0.07700990538235292,5.546766293294118
11.697106,-0.5013045218666665,-0.3826806361862744,-0.2170843933431372,5.517522173019607
11.707123,-0.36687770472941167,-0.29134156710784304,-0.34503714465686275,5.4603259233333326
11.717139,-0.2666974564137254,-0.109990643735294,-0.33765709575490194,5.34204001572549
11.727156,-0.2369228954529411,0.16747095191176484,-0.07347833612745096,5.0054302996862745
11.737173,-0.07414589908039204,0.35333288755882364,0.049760344049019654,4.827019267156863
11.747189,0.2572862881156864,0.3322213778725492,0.15448456110784317,4.665898556294118
11.757206,0.6064825687431373,0.17693431506862758,0.15103494463725492,4.531430888215686
11.767223,0.912278544645098,-0.012516985460784176,0.04672565918627454,4.428316270843137
11.777239,1.1641892753901961,-0.159616880107843,-0.12367975802941172,4.3614431961960785
11.787256,1.370182005037255,-0.24359875315294105,-0.3423542270882352,4.303393244862745
11.797273,1.5814150781745098,-0.2859166235431371,-0.5720273087941177,4.227207843078432
11.807289,1.791820884939216,-0.28715093637254885,-0.7726305909901962,4.144231702470588
11.817306,1.951161191782353,-0.24058308032549006,-0.9390423714019608,4.045541632196079
11.827322,2.0550349370568632,-0.14019345009019593,-1.05150315343,3.9029470872156864
11.837339,2.134751316447059,-0.06149146372549003,-1.1087708867241175,3.801667616960784
11.847356,2.175202481886275,-0.07861140031372532,-1.1558175838613725,3.7810462900588235
11.857372,2.1951290791254903,-0.18887979820784295,-1.180075273939804,3.8394267868431373
11.867389,2.2052969557686275,-0.3446780911039214,-1.1468977366456863,3.9480738070588237
11.877406,2.213376811758824,-0.5204387782372548,-1.0903475255084314,4.083635327647059
11.887422,2.2223459547333335,-0.7098276396862744,-1.057344464547647,4.229253800647059
11.897439,2.2252864535568633,-0.8926505709470586,-1.0366447020182354,4.374891186784313
11.907456,2.2244028547333334,-1.0496987692549018,-1.0059787158221567,4.508624841921568
11.91747237,2.208063729229412,-1.175586868707843,-0.8866708664888234,4.557803423490196
11.92748937,2.1609366386137254,-1.2970739065313723,-0.6673391015868627,4.481897697823529
11.93750638,2.091367851201961,-1.4025504768058823,-0.6176829440182353,4.524494186235294
11.94752237,2.017213465162745,-1.4807160097882353,-0.6447952447829413,4.528695854921568
11.95753937,1.9248445810254902,-1.5476599219058822,-0.649058289194706,4.550480624117647
11.96755538,1.8019434113,-1.6106818083960783,-0.609277479802549,4.62198953027451
11.97757237,1.676123128084314,-1.6478104124862742,-0.5523916829201961,4.7094567154509805
11.98758937,1.5771779005686275,-1.6595651159823528,-0.4850263914829412,4.7869499615294115
11.99760538,1.4906384138352944,-1.655107152923529,-0.4186752250868628,4.843731898392157
12.00762237,1.3923111309529412,-1.6394872679235295,-0.35526925679274507,4.881540718666667
12.01763938,1.2801051606980391,-1.6139990714529409,-0.30029773655745096,4.9166350228431375
12.02765538,1.1489316311490199,-1.587435480315686,-0.2676125133319608,4.962094679549019
12.03767237,1.0138197553647061,-1.5462960646490194,-0.22859372942607842,5.015201167607843
12.04768938,0.916182478345098,-1.489467468727451,-0.1575432604378431,5.083583924196078
12.05770538,0.8443173689529413,-1.4298523879235294,-0.07334747388490195,5.160928396274509
12.06772237,0.765082010482353,-1.3619898667470587,0.015018390664117667,5.24705798890196
12.07773938,0.6734310555019609,-1.2799861755509803,0.09782489597784315,5.344465595450981
12.08775538,0.559540559737255,-1.1952258202568626,0.17249334972490196,5.4576426866078425
12.09777237,0.4111531282666668,-1.1211943490019607,0.24634272894843137,5.587352921431372
12.10778837,0.23767843016862758,-1.0417358246490196,0.3214609797582353,5.737577856607843
12.11780538,0.06262967307058837,-0.9508075511294117,0.3981261458660785,5.901608996882353
12.12782237,-0.09500894783137244,-0.8507351266137254,0.47583568775627455,6.0567609354509795
12.13783837,-0.23143055692941167,-0.7442850408039214,0.555084543560196,6.178151847137254
12.14785538,-0.3415495928705881,-0.6314440170784312,0.6385777326974509,6.243089954980392
12.15787237,-0.4218183693411764,-0.5210095811960783,0.7292263201288235,6.2463948043725495
12.16788837,-0.48647255767450964,-0.41912751223529393,0.8161019515251373,6.202515554764706
12.17790538,-0.5365325600725489,-0.3286407264313724,0.8683283358584706,6.137795575784314
12.18792237,-0.5723825472098037,-0.27222523056176456,0.8560330171525882,6.104194089705882
12.19793838,-0.5919842370333331,-0.2695490631499999,0.7577790423094509,6.157398843039215
12.20795538,-0.5811644918568626,-0.3271647860323528,0.5966205265839607,6.296131274392157
12.21797237,-0.5554987177392156,-0.4109911919343136,0.4742311602114117,6.422803830823529
12.22798838,-0.5322992361313725,-0.4643518386598038,0.4424008013486667,6.479118383745097
12.23800538,-0.520276684307843,-0.471520089385294,0.48239265796435293,6.48405544372549
12.24802137,-0.5153460999745096,-0.45450073636568616,0.5321353715296471,6.471557734274509
12.25803838,-0.5007981700921568,-0.42537018314803904,0.5683358791767059,6.465561972745098
12.26805538,-0.4733674597980391,-0.3938627596970587,0.6233110768453334,6.469613110529411
12.27807137,-0.46517381383725476,-0.3793663082656861,0.7353577219433725,6.469250175960784
12.28808838,-0.48221292126862736,-0.38235431571666656,0.8476050354335686,6.44819172972549
12.29810538,-0.5163880623274509,-0.38568571524215667,0.9190977201825883,6.3965793910588244
12.30812137,-0.5559580681313724,-0.41153851426372534,0.9463517528492549,6.352557928607844
12.31813838,-0.5894338535431372,-0.5043715240107841,0.9630278857708234,6.3645544314313724
12.32815538,-0.5763950499156862,-0.6694339848813723,1.0144947855865099,6.486326851411763
12.33817137,-0.5425723526411763,-0.8947544679990194,1.1077576280263137,6.708422713470589
12.34818838,-0.5806408264235293,-1.0674684576774507,1.1856482845557255,6.884332743156863
12.35820538,-0.6331563942745098,-1.100854992795098,1.1023886114380785,6.939374245784314
12.36822137,-0.7762763486156862,-0.9780563327813725,0.9598237713988628,6.986247051960784
12.37823838,-1.0628601854137254,-0.7161861313499999,0.6978013245165098,7.182392026196078
12.38825438,-1.361976022717647,-0.36022566570294096,0.43114967139886273,7.40367999972549
12.39827137,-1.5949218612411766,-0.009883709232352737,0.3669080270616078,7.512881640647059
12.40828838,-1.759992747535294,0.2753821651009806,0.4425815111204314,7.577822000803922
12.41830438,-1.8750491093196078,0.455341164551961,0.5874383335714118,7.653493732980391
12.42832137,-1.9432381630843136,0.5087684351205884,0.6992046046694509,7.715618490058823
12.43833838,-1.9985335732019605,0.4556264398656865,0.8057159486498432,7.832178325725491
12.44835438,-2.062500894280392,0.36928279617941195,0.9273134329243531,7.983836263745097
12.45837137,-2.1077917012215686,0.3193788399049022,1.012037065414549,8.084409657686274
12.46838838,-2.105894830064706,0.3258624963166669,1.049515493512588,8.103824670607844
12.47840438,-2.0537508484764704,0.3709835677676473,1.0383476097086666,8.052537753392157
12.48842137,-1.9888904454764704,0.410265368897059,1.0107023868459215,7.987321293803921
12.49843838,-1.9354305537509804,0.4266371485107845,0.9740240183557255,7.9302140223725495
12.50845438,-1.8893295921431372,0.4167078769617649,0.9350328123851372,7.874283442196078
12.51847137,-1.839577631945098,0.37769283498921585,0.8934750226929804,7.804852135294118
12.52848838,-1.767541657745098,0.309768906601961,0.8599901536674902,7.710214713388234
12.53850438,-1.6684221960941175,0.2273318335490198,0.8428974582204314,7.624778956309805
12.54852137,-1.5600090509372548,0.1307414374235296,0.8304236245988627,7.544092669623529
12.55853738,-1.4716081762117648,0.01945883424509822,0.7929719790498432,7.459718664211765
12.56855438,-1.3982673471137252,-0.10354764269215667,0.7124980685106275,7.360084553290196
12.57857137,-1.3229126022313726,-0.21810065092019593,0.5867433772753333,7.280906252858824
12.58858738,-1.2346112792117647,-0.320306403410392,0.5110000476478824,7.166361108094117
12.59860437,-1.1117966282117646,-0.3932298846260783,0.47366164317729414,7.068137318290196
12.60862137,-0.949413447545098,-0.43248180762607824,0.45013544551062745,6.978847512231372
12.61863738,-0.764275374309804,-0.4747269891162743,0.43405075272631377,6.8746684628784305
12.62865437,-0.5808002893294117,-0.5360214017241174,0.4047123997851373,6.745204619937254
12.63867137,-0.3974251630745098,-0.6108433821358821,0.3470221879616079,6.6204632868980395
12.64868738,-0.234571075172549,-0.685046474900588,0.2618769253733726,6.527958096231373
12.65870437,-0.09914300260392155,-0.7506933369986272,0.18013463337337257,6.478433426917647
12.66872137,0.011698296317647095,-0.803001851782941,0.13981718143219612,6.458654467956863
12.67873738,0.07992347670980396,-0.8380739442535292,0.1305451655829412,6.449686591858823
12.68875437,0.09916182800980397,-0.8514196751162743,0.144528778957451,6.444502554780391
12.69877137,0.08294054397058825,-0.827035788378039,0.1964198598790196,6.406890802368628
12.70878738,0.03568158286666669,-0.7534880079662744,0.3183809950966666,6.281120784427451
12.71880437,-0.04813191903529409,-0.6331980442349018,0.4947626708613725,6.070594029388237
12.72882037,-0.14944231089411764,-0.49780449317019587,0.6265797896652942,5.874026912721568
12.73883738,-0.24099193705098038,-0.3953504977113724,0.6666156523123529,5.7523210418
12.74885437,-0.32120349677647053,-0.3348880521584312,0.6384986938731372,5.67909854162353
12.75887037,-0.3939823138549019,-0.3004486054819606,0.6033856565431372,5.622541236956863
12.76888738,-0.47596734842352934,-0.2728970756525488,0.5710999686803921,5.5660079586039215
12.77890437,-0.5754603969921568,-0.24155038184666647,0.5021787030705883,5.505088741054902
12.78892037,-0.6531424283058823,-0.2058941869082351,0.377060125854902,5.452288423819608
12.79893738,-0.6989966546196078,-0.19150500321019592,0.267160125482353,5.419901470878432
12.80895437,-0.7142875133647058,-0.21952208605137236,0.21659448796862749,5.426467107094117
12.81897037,-0.7083161131686273,-0.2391550527572547,0.2116849707921569,5.440698369368627
12.82898738,-0.6894227562078431,-0.17943012454156845,0.21099170885098045,5.417098376094118
12.83900437,-0.6826179042078431,-0.03483274648274496,0.169647910054902,5.315717227996078
12.84902037,-0.6584640194039215,0.14885760198784326,0.042778022956862796,5.164717647113726
12.85903738,-0.5583408788941175,0.28825100396823544,-0.11254811300392153,5.056019758349019
12.86905437,-0.4279424264431371,0.3291271114976471,-0.1027785793568627,5.052482419447058
12.87907037,-0.20045451801176464,0.26082748230745106,-0.049178815905882314,5.002135978937255
12.88908738,0.1786076203803922,0.0747120297780393,0.07841356346666672,4.76080873062353
12.89910437,0.5845555143019608,-0.18159681596705873,0.20100159472156867,4.4698225241137255
12.90912037,0.9196833825176473,-0.4028955039474509,0.1472043071764706,4.276629459584314
12.91913625,1.1792330533607844,-0.5513703197513724,-0.028402414725490183,4.123822644623529
12.92915325,1.3640752775764708,-0.6091802504376469,-0.2859552041176471,3.976631545780392
12.93916925,1.4873735993803923,-0.5693511384572548,-0.5361921292352941,3.890118658192157
12.94918625,1.6155888591254903,-0.4442434817709803,-0.7650822687647059,3.7602014164078432
12.95920225,1.7467508117529411,-0.29068013228666656,-0.9678879563333334,3.583085036192157
12.96921925,1.8308326621588233,-0.19102944105725478,-1.1031153891568628,3.439978765329412
12.97923625,1.8754617978843138,-0.18679392441019593,-1.1727763189490197,3.3754629772117646
12.98925225,1.9058081491803922,-0.2609287079396077,-1.1884902180274508,3.386349042427451
12.99926925,1.9274859287509805,-0.35094228201803906,-1.1408074584784313,3.440005195917647
13.00928625,1.9528014904882356,-0.454398306782745,-1.062945132282353,3.5177210749764702
13.01930225,1.9782707293666668,-0.5806010666847057,-0.9832078906647058,3.611847275447059
13.02931925,2.00144775652549,-0.7259358130258823,-0.9064936595411764,3.733213631133333
13.03933625,2.000606259070588,-0.8714820909915686,-0.8632181409666667,3.878967358078431
13.04935225,1.9629490996549022,-0.9970047280170586,-0.8550321537039216,4.000495645411765
13.05936925,1.8912268343019607,-1.111634965342549,-0.8768234452117647,4.1044511277647056
13.06938625,1.7942577077137256,-1.221127059360196,-0.9011735929392156,4.205074357333333
13.07940225,1.693703300654902,-1.308356200815098,-0.8794364311705881,4.297595605588235
13.08941925,1.600808061047059,-1.3769840995870588,-0.7947041052490196,4.338503709156862
13.09943625,1.513470651517647,-1.4207295963517645,-0.7341570929156863,4.392247924784313
13.10945225,1.421466470262745,-1.456342831455686,-0.7018832944058824,4.415674860411764
13.11946925,1.3164064682431376,-1.4980162125654903,-0.6871742106803922,4.4203175037254905
13.12948625,1.1934268197137254,-1.5322426371537254,-0.6911818578960784,4.432677319352941
13.13950225,1.0851050745764705,-1.5410841546243137,-0.6805753870529412,4.461846398901961
13.14951925,0.985175597282353,-1.5274794952909803,-0.6462597752294117,4.482595196274509
13.15953525,0.8874293671254903,-1.508052889447843,-0.6006515046078431,4.482703833392157
13.16955225,0.7927625444392158,-1.480250766310588,-0.5620983152745098,4.472178162176471
13.17956925,0.7115798309803922,-1.4432710713105883,-0.5295036221333334,4.464532524666667
13.18958525,0.6458627793529413,-1.3923657851145097,-0.4950129177196078,4.491984666254902
13.19960225,0.5815677161176471,-1.3311155705850979,-0.44999122887843135,4.552622782607844
13.20961925,0.49474524135294123,-1.2605344266243135,-0.38124672976078433,4.647392899921568
13.21963525,0.3901748791627452,-1.1783116597419607,-0.2988964505862745,4.770122234117647
13.22965225,0.25497165496666674,-1.0862379052184312,-0.21768878615490198,4.912245935196078
13.23966925,0.0959776724137256,-0.9846233520870588,-0.13684074554705883,5.0687297869411765
13.24968525,-0.07583544478235286,-0.8793076719772548,-0.056028315625490197,5.226039387843137
13.25970225,-0.24716068062549013,-0.776228861412549,0.023967370041176484,5.376203091156863
13.26971925,-0.40937306813529406,-0.6684784350890195,0.10759830123725492,5.514940639000001
13.27973525,-0.5558671482333333,-0.5594461729792155,0.20559605911960785,5.627688577901961
13.28975225,-0.6744225153705881,-0.44571834447137243,0.3132062411196079,5.703587927333333
13.29976925,-0.7712038460176469,-0.3418529343509802,0.40035320052352935,5.735312837431373
13.30978525,-0.8531760998215685,-0.2564520681862744,0.4541390315431373,5.722818878274511
13.31980225,-0.8991842798607843,-0.18480152581372536,0.4727476549156863,5.682139832117646
13.32981925,-0.9015600953117646,-0.15479061121764692,0.4278558172686275,5.6974970811372545
13.33983525,-0.8472981748215686,-0.19553430798235283,0.2908725917196078,5.829116238313725
13.34985225,-0.7590049949,-0.2910920170411763,0.14813853785686273,6.0066359369999995
13.35986925,-0.7049389446843136,-0.39529953513921556,0.0954480393862745,6.1245618502352945
13.36988525,-0.6796770469196077,-0.45851773902156845,0.10591410824901959,6.1758548544509795
13.37990225,-0.6640562332333333,-0.46220134729607826,0.1017236208960784,6.191533864372549
13.38991825,-0.6390191781156863,-0.429366009707843,0.08408984589607842,6.20759819117647
13.39993525,-0.6051658976058822,-0.38938890584509794,0.11222878585686273,6.213774207411764
13.40995225,-0.6004774682529411,-0.36027094133529397,0.17727978516666662,6.198319855137255
13.41996825,-0.6257330601941176,-0.3329144448058822,0.24974941640196077,6.158949324156863
13.42998525,-0.6569404240176471,-0.30514977823725475,0.3249684743431372,6.114200273117647
13.44000225,-0.6531400634686274,-0.29477869796078415,0.405953394272549,6.0817319948627455
13.45001825,-0.6012255650372548,-0.30986194615686263,0.5080733331254902,6.06468540509804
13.46003525,-0.5393013528411764,-0.36450840705882337,0.629453246517647,6.0964570448039215
13.47005225,-0.4877547388607842,-0.4643036506215685,0.7598042275960784,6.186287309627452
13.48006825,-0.46433944483529405,-0.5887586777725489,0.8512771520666667,6.308830375823529
13.49008525,-0.463244907690196,-0.690702463517647,0.842518851374902,6.409182529882353
13.50010225,-0.5197434727117647,-0.7095366546941175,0.7613967855905883,6.44606304135294
13.51011825,-0.6912075555568626,-0.637876596272549,0.5656181098258823,6.554748003235295
13.52013525,-0.9595797962941176,-0.47086721897843126,0.22116904606117643,6.810371885019609
13.53015225,-1.2028577837803922,-0.2570645582921567,0.12420563770039214,6.94826630482353
13.54016825,-1.4111421663333332,-0.05738601897843123,0.193619333465098,7.058536536137254
