Time (s),Linear Acceleration x (m/s^2),Linear Acceleration y (m/s^2),Linear Acceleration z (m/s^2),Absolute acceleration (m/s^2)
0.008266500023,0.2777950129682353,-0.42732404168450977,-1.042856219979804,2.2235147544784315
0.01828650001,0.2777950129682353,-0.42732404168450977,-1.042856219979804,2.2235147544784315
0.0283065,0.2777950129682353,-0.42732404168450977,-1.042856219979804,2.2235147544784315
0.03832649998,0.2777950129682353,-0.42732404168450977,-1.042856219979804,2.2235147544784315
0.04834649997,0.2777950129682353,-0.42732404168450977,-1.042856219979804,2.2235147544784315
0.05836650002,0.2777950129682353,-0.42732404168450977,-1.042856219979804,2.2235147544784315
0.0683855,0.2777950129682353,-0.42732404168450977,-1.042856219979804,2.2235147544784315
0.07840549998,0.2777950129682353,-0.42732404168450977,-1.042856219979804,2.2235147544784315
0.08842550003,0.2777950129682353,-0.42732404168450977,-1.042856219979804,2.2235147544784315
0.09844550001,0.2777950129682353,-0.42732404168450977,-1.042856219979804,2.2235147544784315
0.1084655,0.2777950129682353,-0.42732404168450977,-1.042856219979804,2.2235147544784315
0.1184855,0.2777950129682353,-0.42732404168450977,-1.042856219979804,2.2235147544784315
0.1285045,0.2777950129682353,-0.42732404168450977,-1.042856219979804,2.2235147544784315
0.1385245,0.2777950129682353,-0.42732404168450977,-1.042856219979804,2.2235147544784315
0.1485445,0.2777950129682353,-0.42732404168450977,-1.042856219979804,2.2235147544784315
0.1585645,0.2777950129682353,-0.42732404168450977,-1.042856219979804,2.2235147544784315
0.1685845,0.2777950129682353,-0.42732404168450977,-1.042856219979804,2.2235147544784315
0.1786045,0.2777950129682353,-0.42732404168450977,-1.042856219979804,2.2235147544784315
0.1886245,0.2777950129682353,-0.42732404168450977,-1.042856219979804,2.2235147544784315
0.1986435,0.2777950129682353,-0.42732404168450977,-1.042856219979804,2.2235147544784315
0.2086635,0.2777950129682353,-0.42732404168450977,-1.042856219979804,2.2235147544784315
0.2186835,0.2777950129682353,-0.42732404168450977,-1.042856219979804,2.2235147544784315
0.2287035,0.2777950129682353,-0.42732404168450977,-1.042856219979804,2.2235147544784315
0.2387235,0.2777950129682353,-0.42732404168450977,-1.042856219979804,2.2235147544784315
0.2487435,0.2777950129682353,-0.42732404168450977,-1.042856219979804,2.2235147544784315
0.2587625,0.2777950129682353,-0.42732404168450977,-1.042856219979804,2.2235147544784315
0.2687825,0.2777950129682353,-0.42732404168450977,-1.042856219979804,2.2235147544784315
0.2788025,0.2777950129682353,-0.42732404168450977,-1.042856219979804,2.2235147544784315
0.2888225,0.2777950129682353,-0.42732404168450977,-1.042856219979804,2.2235147544784315
0.2988425,0.2777950129682353,-0.42732404168450977,-1.042856219979804,2.2235147544784315
0.3088625,0.2777950129682353,-0.42732404168450977,-1.042856219979804,2.2235147544784315
0.3188815,0.2777950129682353,-0.42732404168450977,-1.042856219979804,2.2235147544784315
0.3289015,0.2777950129682353,-0.42732404168450977,-1.042856219979804,2.2235147544784315
0.3389215,0.2777950129682353,-0.42732404168450977,-1.042856219979804,2.2235147544784315
0.3489415,0.2777950129682353,-0.42732404168450977,-1.042856219979804,2.2235147544784315
0.3589615,0.2777950129682353,-0.42732404168450977,-1.042856219979804,2.2235147544784315
0.3689815,0.2777950129682353,-0.42732404168450977,-1.042856219979804,2.2235147544784315
0.3790005,0.2777950129682353,-0.42732404168450977,-1.042856219979804,2.2235147544784315
0.3890205,0.2777950129682353,-0.42732404168450977,-1.042856219979804,2.2235147544784315
0.3990405,0.2777950129682353,-0.42732404168450977,-1.042856219979804,2.2235147544784315
0.4090605,0.2777950129682353,-0.42732404168450977,-1.042856219979804,2.2235147544784315
0.4190805,0.2777950129682353,-0.42732404168450977,-1.042856219979804,2.2235147544784315
0.4291005,0.2777950129682353,-0.42732404168450977,-1.042856219979804,2.2235147544784315
0.4391230833,0.2777950129682353,-0.42732404168450977,-1.042856219979804,2.2235147544784315
0.4491420834,0.2777950129682353,-0.42732404168450977,-1.042856219979804,2.2235147544784315
0.4591620833,0.2777950129682353,-0.42732404168450977,-1.042856219979804,2.2235147544784315
0.4691820833,0.2777950129682353,-0.42732404168450977,-1.042856219979804,2.2235147544784315
0.4792020833,0.2777950129682353,-0.42732404168450977,-1.042856219979804,2.2235147544784315
0.4892220834,0.2777950129682353,-0.42732404168450977,-1.042856219979804,2.2235147544784315
0.4992420833,0.2777950129682353,-0.42732404168450977,-1.042856219979804,2.2235147544784315
0.5092610833,0.2777950129682353,-0.42732404168450977,-1.042856219979804,2.2235147544784315
0.5192810833,0.3253923085839216,-0.43087929211588233,-1.0911761425876472,2.276910738184314
0.5293010834,0.35813912964274514,-0.4444346341982353,-1.1244104895856863,2.322267707690196
0.5393210833,0.3787839699035294,-0.4361345230452941,-1.1236362953033332,2.3209420600960784
0.5493410833,0.40478302958,-0.4136402013080392,-1.1180149885464707,2.3291331065137255
0.5593610833,0.437607446634902,-0.3859191968080392,-1.1302368845621569,2.348998520382353
0.5693800834,0.46343634373882353,-0.3857870970276471,-1.1861453580543138,2.399365528947059
0.5794000833,0.47927328799960783,-0.3957213788394117,-1.2463371233758824,2.458554461917647
0.5894200833,0.49949466373078427,-0.3748968900433333,-1.2545787050484314,2.4826604159607846
0.5994400833,0.5539463220562745,-0.26629925377666663,-1.1231713155445098,2.6436091228313723
0.6094600834,0.735430331232745,-0.15547109963941178,-0.9874287315641177,2.853189952537255
0.6194800833,0.8879342053896079,-0.1269435734982353,-1.0390708242758824,2.96093232112549
0.6294990833,1.0377598025464707,-0.11455580931392156,-1.1346260453915686,3.0943332283019607
0.6395190833,1.178514582507255,-0.08841740245313723,-1.1691255693523528,3.1913758017137255
0.6495390834,1.276861060879804,-0.09961223576686273,-1.20344355447,3.2426015573607843
0.6595590833,1.3223006192660787,-0.13351402237470586,-1.2732308643719608,3.3176309732039218
0.6695790833,1.3138997869562745,-0.16427794656686273,-1.3549771748817647,3.4033987162039216
0.6795990833,1.2754116794405883,-0.18745949670411763,-1.4587711457837254,3.5023364637333336
0.6896180834,1.231045476371961,-0.2067601294296078,-1.5837317048621569,3.6247716208705882
0.6996380833,1.182985504060196,-0.24176169417666662,-1.7181525544111764,3.7710346693019607
0.7096580833,1.115267437787647,-0.31034545219235293,-1.8632079528935293,3.936498775635294
0.7196780833,1.0604287109641177,-0.39909569519235294,-2.0107277693256864,4.085772576341176
0.7296980833,1.0212012488072548,-0.48859250726098036,-2.150086282919804,4.220220039596078
0.7397180834,0.9667419102582352,-0.5733387833629412,-2.2764853258511764,4.359570121556863
0.7497370833,0.8895866027288235,-0.6493690622331372,-2.3804654216492156,4.5021621482784315
0.7597570833,0.790397306972549,-0.718211886290196,-2.4637049562662745,4.646743430656863
0.7697770833,0.7136485371529412,-0.7466239600235295,-2.5290455733113726,4.746979675539215
0.7797970833,0.631695513235294,-0.7505778959843137,-2.589107232352549,4.824478722343137
0.7898170833,0.5311331665686275,-0.7690753792490196,-2.644768597925098,4.891181953656862
0.7998370833,0.4317903885686275,-0.817172471354902,-2.6711170000780395,4.946871692892157
0.8098560834,0.32841138939215686,-0.8525637071647059,-2.670384504468235,5.004918693401961
0.8198760833,0.19197776198039215,-0.8571729870078432,-2.6504340554623527,5.048594172107843
0.8298960833,0.055213101921568634,-0.8474016447388236,-2.6206449452505884,5.099532032911765
0.8399160833,-0.04945292674705881,-0.8173035263760784,-2.5850199813215684,5.16766872432353
0.8499360833,-0.155334528472549,-0.7807953405290196,-2.5029080535764705,5.222000930931372
0.8599560834,-0.2609133848843137,-0.7423732922049018,-2.402794417654902,5.286168480303921
0.8699750833,-0.3325610065117647,-0.6977078105833334,-2.2814387243607843,5.339857213519608
0.8799950833,-0.3613220156937254,-0.6261767176584313,-2.1718397695960787,5.382787673735295
0.8900150833,-0.39716903621921573,-0.5319282861760785,-2.0938619953019604,5.40882365267647
0.9000350834,-0.45066374468196074,-0.43274619196039216,-2.0130806702627453,5.375465901382353
0.9100550833,-0.526174389532549,-0.348749414252549,-1.9469963217764705,5.280715071264706
0.9200750833,-0.5971593066521569,-0.3186217903701961,-1.8890860998745098,5.217083454205883
0.9300940833,-0.6157197392070588,-0.37801260180156865,-1.815530580509804,5.223408491578432
0.9401140834,-0.47180778095215686,-0.5533574831152941,-1.8128429536960784,5.359131206911766
0.9501340833,-0.09021309885411762,-0.8290802429780393,-1.8748837060490198,5.581307721970588
0.9601540833,0.5066268494203922,-1.0579114688996079,-1.7891898255784315,6.116240449382353
0.9701740833,1.2580949925380391,-1.216565421507451,-1.6782811690294117,6.844463157931373
0.9801940834,2.1600209444988234,-1.329146811670196,-1.5830994818137254,7.726026119460784
0.9902130833,3.1670042858713727,-1.368638447578039,-1.4852609229705882,8.681332792656862
1.000233083,4.134669268047843,-1.398965438570196,-1.3888843944803921,9.58411236785294
1.010253083,4.977048009745882,-1.5020527734662743,-1.2671972672254903,10.376433283480392
1.020273083,5.689564067469412,-1.6853102331466667,-1.101375149872549,11.060257734950982
1.030293083,6.299386760704706,-1.8876845108545097,-0.9503371325784313,11.672927339205883
1.040313083,6.864367664469412,-2.0593417768152937,-0.848555337617647,12.24843894440196
1.050332083,7.416030676069411,-2.2165368606035294,-0.8121038411058823,12.822261788176469
1.060352083,7.931424253196862,-2.3562988120133332,-0.8057627994294116,13.341501959843136
1.070372083,8.366389115200784,-2.4604180285623527,-0.7916266955529412,13.767661152294117
1.080392083,8.69926742764196,-2.5074438118662745,-0.7421831329901962,14.057092277411765
1.090412083,8.926248478459607,-2.5347129670329416,-0.6932929219745099,14.23380251862745
1.100432083,9.039732291773333,-2.584129709791765,-0.7049120646392157,14.343746418647058
1.110451083,9.04528021598902,-2.7077978163603924,-0.8641016394235294,14.225967991725488
1.120471083,8.870150443426274,-2.825173739911372,-1.0292907656,14.023579296058825
1.130491083,8.67570230728902,-2.856876966262353,-0.9985323819392157,13.958756583980392
1.140511083,8.446677635936078,-2.88306258723098,-0.9052840135137256,13.905659362215687
1.150531083,8.205015285681176,-2.9397747318584315,-0.8486033292111765,13.90228855162745
1.160551083,7.987334287210588,-2.972607572191765,-0.7606011629111765,13.942719672666666
1.170570083,7.793811126151765,-2.973270832740784,-0.6239711980484314,13.986773621960783
1.180590083,7.616876684996864,-2.970641196544706,-0.46454907893078434,14.041576590294119
1.190610083,7.43961220284,-2.9799044415839213,-0.2764708307543137,14.105817087568628
1.200630083,7.265603725506667,-3.0019548192113725,-0.07806289140137254,14.166834808843138
1.210650083,7.1016987840360795,-3.0347265196035296,0.11503703157901964,14.228008488549019
1.220669083,6.954801455389019,-3.070184958270196,0.3022871764417647,14.288010796666667
1.230689083,6.791696768428236,-3.1062339313290193,0.486001581657451,14.37129150562745
1.240709083,6.603671007683137,-3.147722127681961,0.6684965299907842,14.487696248294117
1.250729083,6.413228306055687,-3.196307817721176,0.8457082724809803,14.624811080294117
1.260749083,6.214303014310588,-3.253447840936863,0.9902081052064706,14.790169576313726
1.270769083,5.99524118446745,-3.3416367512505882,1.0752685659633334,14.999464666764705
1.280788083,5.719170205781177,-3.49294997178,1.1157738339045098,15.291511800333334
1.290808083,5.400392482526274,-3.690922772250588,1.131207353237843,15.639885495215685
1.300828083,5.053837194408627,-3.910426267662353,1.1318893793554903,16.02984566119608
1.310848083,4.697010652781176,-4.125951380446667,1.1200471854731373,16.442999097117646
1.320868083,4.369490310173333,-4.3273804213878435,1.1184091453339216,16.82597439527451
1.330888083,4.086910291369412,-4.507951561242745,1.1523716813515685,17.15649104864706
1.340907083,3.839396678271372,-4.670522451858824,1.2206311997868629,17.44826002337255
1.350927083,3.6069278133694116,-4.824248302345098,1.3096323800613725,17.724005631098038
1.360947083,3.377678230526275,-4.98842552342353,1.3902727126888235,17.98734855737255
1.370967083,3.1488965741341177,-5.160665602011766,1.4431054418260783,18.230443269882354
1.380987083,2.9027027118988236,-5.333784006913724,1.4745188282966666,18.463470609215687
1.391006083,2.6129424382180386,-5.518603131737255,1.4960205937672548,18.690187642705883
1.401026083,2.302867997292549,-5.70242790887451,1.51314267435549,18.91563251247059
1.411046083,2.00030114052,-5.855336817364705,1.5352184931005883,19.160687585372546
1.421066083,1.728470654409804,-5.956530021268627,1.573865424182941,19.430231475725492
1.431086083,1.485173445490196,-5.999115797327451,1.6284458459476472,19.664430191470586
1.44110325,1.230533337672549,-5.984985949111765,1.6980289848378431,19.838405911215688
1.45112225,0.9047638233980391,-5.8970535481117645,1.7725672434496078,19.89795736809804
1.46114225,0.42017142357450976,-5.724429318837255,1.8104070695868628,19.74493917417647
1.47116225,-0.2910057878568628,-5.512151159150981,1.8123308493907844,19.33270804378431
1.48118225,-1.2106226855431372,-5.340559393484313,1.8195011179594116,18.694650421509806
1.49120225,-2.290847669739216,-5.2485481067,1.8480825832339214,17.889441699686273
1.50122125,-3.440691392072549,-5.2245949533862746,1.892411116194706,16.998201032882353
1.51124125,-4.540583279680392,-5.193643049819609,1.940338756567255,16.156002259705883
1.52126125,-5.503784600523529,-5.091849634956863,1.942089900194706,15.420919694941176
1.53128125,-6.3076041338372555,-4.919079993505883,1.8782650190378434,14.750201977941176
1.54130125,-6.971741355303922,-4.7329290621333335,1.8099329893947058,14.102533778313726
1.55132125,-7.496632880068628,-4.584077811760784,1.7758202874143139,13.56119090782353
1.56134025,-7.884759922401962,-4.477472791937255,1.7517901085025491,13.158042411372548
1.57136025,-8.089269247892156,-4.380777145937254,1.700293542677059,12.943413832941177
1.58138025,-7.962329819068627,-4.2679773938,1.6461054905731374,13.066998272549021
1.59140025,-7.484351789460784,-4.134304792956863,1.668843225592745,13.54383454509804
1.60142025,-6.790891389068628,-4.006732018956862,1.8162870955966668,14.24489299882353
1.61144025,-5.9790205839117645,-3.933116118486274,2.0815302147339216,15.082826139117648
1.62145925,-5.144731450656863,-3.8993562443882355,2.4157481874986275,15.960836089333334
1.63147925,-4.376399311329412,-3.8745046090627455,2.7580642314005885,16.745350709705882
1.64149925,-3.712253903780392,-3.86927032492549,3.0660739976025493,17.33733093947059
1.65151925,-3.1805279814274505,-3.8829213248725494,3.316862085882941,17.72476960590196
1.66153925,-2.7925743949764708,-3.913978913990196,3.4954111381882353,17.91599367084314
1.67155825,-2.523690332231372,-3.9607062757745095,3.585689166927451,17.940742618568628
1.68157825,-2.3399929899960785,-4.005464900107843,3.5882159809862744,17.85587532007843
1.69159825,-2.2184286772117647,-4.0286472786176475,3.5056974424568623,17.768148279960783
1.70161825,-2.115718963466666,-4.02384360177451,3.3701520701627454,17.694966821470587
1.71163825,-2.01762363152549,-4.00270112477451,3.2325559073588237,17.622533345882353
1.72165725,-1.9164622834862746,-3.9649360082647056,3.1001365540058825,17.545679684764707
1.73167725,-1.806642562035294,-3.9077825765784313,2.96203536375098,17.463382977039213
1.74169725,-1.6831739372117647,-3.8406271328333332,2.803805692535294,17.372925999235296
1.75171725,-1.546943856035294,-3.768006009990196,2.629946198907843,17.26694515437255
1.76173725,-1.4034988954470589,-3.6860402368333336,2.4539985327313723,17.144532205666668
1.77175725,-1.2450009202313725,-3.6010643170686274,2.2964365017705886,17.003497358294116
1.78177625,-1.0553854047019606,-3.495083235284314,2.19598953442549,16.81731737437255
1.79179625,-0.83107593952549,-3.3522604814411765,2.158917590994118,16.56714214162745
1.80181625,-0.5770933798392155,-3.1765457322058825,2.176472190680392,16.263590269333335
1.81183625,-0.29264242395686263,-2.9755283695980395,2.22323632972549,15.915668527725488
1.82185625,0.013758601239215854,-2.775496108205883,2.2659028432268626,15.549233789196078
1.83187525,0.3081709654941179,-2.609725979421569,2.2851024079915687,15.212104473705882
1.84189525,0.5800698869254903,-2.48750010577451,2.259647133640588,14.91460675354902
1.85191525,0.8350249991411767,-2.3940440809313728,2.180277595907255,14.637253701352941
1.86193525,1.0814957671607845,-2.3067361625784315,2.0509078464131374,14.35785454045098
1.87195525,1.324436880611765,-2.2065577830686274,1.9000720051758826,14.071984485078431
1.88197525,1.561361059964706,-2.0970925031274508,1.7558262396856865,13.791444909941177
1.89199425,1.7888716006509804,-1.9938942431117648,1.6277228939013726,13.527736324549018
1.90201425,2.004430386670588,-1.8990968412058824,1.5200027269209804,13.284793492803923
1.91203425,2.214905259376471,-1.81151206722549,1.4378045355405884,13.052412838529413
1.92205425,2.4082376206313727,-1.733275987872549,1.3793438527405883,12.839909197803923
1.93207425,2.5744169340235294,-1.6625033146490196,1.3373888164092156,12.656704123588236
1.94209325,2.7108908901215694,-1.5949499392215685,1.2965393366445097,12.50349293737255
1.95211325,2.8213901612980394,-1.5269213428019608,1.2469329491935293,12.374145565882353
1.96213325,2.9091705576509805,-1.4613946452843138,1.1918944869386274,12.266921784019607
1.97215325,2.9759028578862745,-1.3914162532450982,1.1404136885268628,12.184469863862747
1.98217325,3.019976406376471,-1.310212595872549,1.0877373093562746,12.132387553960784
1.99219225,3.0338654352980394,-1.2185030082254902,1.023362142130196,12.117560428509805
2.00221225,3.02128113802353,-1.1238577113235293,0.9509304805419608,12.129068158490197
2.01223225,2.977450535611765,-1.0406927573627451,0.879459952147451,12.164274217941177
2.02225225,2.921685250121569,-0.9746626675960783,0.8215556921023529,12.20881197335294
2.03227225,2.8521127737882352,-0.9115614395568628,0.7885830252003921,12.2704744142549
2.04229225,2.759942001337255,-0.8431007826156863,0.7918214826513725,12.36266214643137
2.05231125,2.6272252597450985,-0.7554909472823529,0.8141552266670589,12.488481688647058
2.06233125,2.4197451016078433,-0.6343106245960783,0.8267850920984313,12.556598435764707
2.07235125,2.123924624666667,-0.4863882560274509,0.8475494061670589,12.527048598411765
2.08237125,1.6839321030000003,-0.3574574031254902,0.9159662835003922,12.358509492333333
2.09239125,0.9827089163137258,-0.2906451823411764,1.0102946498729413,11.934212891725489
2.10241025,0.024113825450980668,-0.28036428102745103,1.0335451111729412,11.263823714666668
2.11243025,-1.0409615847450977,-0.2863762333803922,0.9208472582258823,10.467373719333333
2.12245025,-2.0789715864509803,-0.24720675610588239,0.6775523366105882,9.615041207921568
2.13247025,-2.9569302256019605,-0.15475321918431373,0.3479159152674509,8.786195792313725
2.14249025,-3.586522842170588,-0.03624329693921569,-0.005792965438431393,8.147017777862745
2.15250925,-3.9756047806019605,0.09713414849019608,-0.329254168105098,7.727190001
2.16252925,-4.132765967660784,0.25786339547058823,-0.6040116443207844,7.533930970607843
2.17254925,-4.05183804942549,0.41221942103921566,-0.7922393519286276,7.569747875117646
2.18256925,-3.701354326641176,0.5325382998235294,-0.8380954413011764,7.876233097117646
2.19258925,-3.05701715315098,0.6466343366666667,-0.7318875047325489,8.476991631764706
2.20260825,-2.0981527235039215,0.7845512479215685,-0.5205233422031372,9.305585710980392
2.21262825,-0.8414224264647056,0.9464691621960785,-0.2973222912619608,10.33942187809804
2.22264825,0.5586233668882356,1.1101212402549019,-0.1287374447521569,11.480171482705881
2.23266825,1.87939998257451,1.1820111171960785,-0.016296439360000022,12.525616389117648
2.24268825,2.995884055437255,1.1148741380392158,0.09141642863019607,13.363331029784314
2.25270825,3.9139720668882356,0.9654890139411765,0.24275466033607843,14.015310727196079
2.26272725,4.682852904339216,0.7773576708039215,0.4379326894733333,14.535300292647058
2.27274725,5.336308157084313,0.5618993223333334,0.6374132718850981,14.953866907235293
2.28276725,5.8826921434372546,0.3463080241372549,0.8089062368262745,15.274258459509804
2.29278725,6.312884238692156,0.1497622395490196,0.9457000470027452,15.496851548333334
2.30280725,6.63977569602549,-0.04706404513725491,1.0514691844341177,15.656713043823531
2.31282625,6.883374231378432,-0.23981054123529413,1.1303683509439215,15.774058324156865
2.32284625,7.056824282339217,-0.4136973275686275,1.1874651420360784,15.86139888694118
2.33286625,7.16707875009804,-0.5698683862156863,1.2275304929856863,15.943075646647058
2.34288625,7.227170654156864,-0.7074204253921569,1.2603691927249019,16.026598053705882
2.35290625,7.245589016568627,-0.8358780550588235,1.2976045830170588,16.124565779156864
2.36292525,7.22153009745098,-0.9687046669803923,1.3475172929072547,16.250642528215685
2.37294525,7.150183919862745,-1.1182054512352941,1.4093656432052941,16.415252186568626
2.38296525,7.039633812294118,-1.2889683913529413,1.4730842598347058,16.614675169
2.39298525,6.904137407647059,-1.4773945860392157,1.534816084305294,16.837759687666665
2.40300525,6.751620572254901,-1.6773984885647062,1.6073178265013726,17.078919657764708
2.41302425,6.584211153686275,-1.885656742019608,1.6947982004621571,17.336602963039216
2.42304425,6.395716400392157,-2.0990483047254904,1.7803560013131372,17.61490670045098
2.43306425,6.194502703254902,-2.316595512235294,1.8417607113288235,17.902936583333332
2.443087583,5.986401834568627,-2.53862773194902,1.8741747426994118,18.192565166764705
2.453107583,5.779652784745098,-2.7723283300235293,1.8975455477190197,18.481235744549018
2.463127583,5.574755949450981,-3.022081916913726,1.9273831640327452,18.772270709960786
2.473146583,5.3636620172156855,-3.2865381368039217,1.9667580591307843,19.07282588064706
2.483166583,5.136765308176471,-3.5772185600784314,2.01969285944451,19.393430494137256
2.493186583,4.886184039352941,-3.899764684980392,2.0949223907915684,19.736100499137255
2.503206583,4.619210571450981,-4.245640807509804,2.197374419978431,20.08853796529412
2.513226583,4.354760532529412,-4.596940813,2.315342729527451,20.435988397333333
2.523245583,4.1041699768823525,-4.93260946272549,2.4318121340200003,20.7696752662549
2.533265583,3.872325525862745,-5.237260800372549,2.530061253378823,21.07826323892157
2.543285583,3.6677447038235296,-5.511059227117647,2.607588092712157,21.349905604941178
2.553305583,3.4781465005686276,-5.763142462176471,2.6737923836533333,21.597747737019606
2.563325583,3.2990145038235292,-6.005498819607842,2.735235390065098,21.823485044235298
2.573344583,3.1346101414313727,-6.2423171759019604,2.8020958532415685,22.020234608392155
2.583364583,2.977115720313726,-6.476305244784314,2.888384590437647,22.19660013690196
2.593384583,2.8258707229607847,-6.705377301509804,2.9872968184376467,22.358714661999997
2.603404583,2.6771418169019605,-6.920560134411764,3.083764130672941,22.520317249666665
2.613424583,2.530994066784314,-7.120535786803921,3.192920428280784,22.69076375398039
2.623443583,2.3703471479607843,-7.305820034705882,3.317059035090588,22.881268115
2.633463583,2.1665117312352944,-7.4884915345686265,3.4569829916470587,23.10125345111765
2.643483583,1.8660845999941178,-7.684320278568627,3.610635786343137,23.332515361431376
2.653503583,1.4570200655823533,-7.886722244568627,3.763379682970588,23.47323126901961
2.663523583,0.985130202837255,-8.071096533862745,3.8910307552058825,23.517283774117647
2.673542583,0.47718831166078446,-8.242846392196078,4.00206845177451,23.471888932549017
2.683562583,-0.073455841280392,-8.375115096627452,4.1094363670098035,23.34796518490196
2.693582583,-0.7119929092999998,-8.449300639156863,4.206604112617647,23.093221014705883
2.703602583,-1.5101204991627448,-8.503801270786274,4.260239417950981,22.639773489215685
2.713622583,-2.5261614455352936,-8.587775880672549,4.2685982649705885,21.923407910196076
2.723641583,-3.775000810398039,-8.716908195966667,4.2499922871862745,20.89926054819608
2.733661583,-5.045531705715686,-8.863497370711764,4.1822195093176475,19.64370338366667
2.743681583,-6.011515670813726,-8.88879262842157,4.078401117690196,18.6934644497451
2.753701583,-6.500952660813726,-8.751449741774511,3.9864631375235295,18.208542524254902
2.763721583,-6.568483553166668,-8.53455421067647,3.9024466283274513,18.122122099549017
2.773740583,-6.3371763237549015,-8.249823557264707,3.8556420030529415,18.312502775235295
2.783760583,-5.960267371009803,-7.93561925095098,3.875736085758824,18.631267016607843
2.793780583,-5.471680589245098,-7.627810305127451,3.9387674195039217,19.049495408764706
2.803800583,-4.8362494017941176,-7.330011663558824,3.9830297184058825,19.59838858817647
2.813820583,-4.118696500970588,-7.034481667147059,3.9435658309666666,20.194898952490195
2.823839583,-3.435993773656863,-6.751602935754902,3.796239729339216,20.728533771313725
2.833859583,-2.8532214179509805,-6.5067578342647066,3.5758547289862745,21.148699508372548
2.843879583,-2.3896984736509803,-6.288743002754901,3.3309197036137257,21.4307696415098
2.853899583,-2.0215966772588234,-6.099154739876471,3.1073778058686274,21.579855598568628
2.863919583,-1.7435658150823528,-5.939210645013725,2.919840333417647,21.596726729745097
2.873938583,-1.5447044528274507,-5.792320378798038,2.758700545966667,21.506550577392158
2.883958583,-1.3899022273941173,-5.643102187052941,2.620385989672549,21.351567430666663
2.893978583,-1.2577074931196077,-5.491765629209804,2.513225535947059,21.169805935764703
2.903998583,-1.1280177290411764,-5.335587468013725,2.440587616692157,20.970327955196076
2.914018583,-0.9910258244529412,-5.1744884103862745,2.385543980801961,20.75705487676471
2.924037583,-0.8380698630803921,-5.014040606484314,2.3355008034686273,20.531190714431375
2.934057583,-0.6625845110999998,-4.855241488170589,2.297014745331373,20.29182463992157
2.944077583,-0.4700516705705881,-4.696445723425491,2.2748994349588236,20.04261458107843
2.954097583,-0.26172419360980376,-4.539692356680392,2.2628437145078433,19.783426380411765
2.964117583,-0.03665956623725473,-4.378924985190196,2.2480379339,19.50840550090196
2.974136583,0.20861573268431394,-4.209901041405882,2.2254964245666664,19.212210440117644
2.984156583,0.4686744437039218,-4.036780177327451,2.1949766474490198,18.90174688772549
2.994176583,0.7392069282333334,-3.8552367887980394,2.153737038017647,18.576435867137253
3.004196583,1.0309785293705886,-3.6645380133666663,2.1035843687235296,18.22765440080392
3.014216583,1.3559099657039217,-3.4673919892098035,2.0542970070764706,17.852538950411763
3.024235583,1.6757311189980395,-3.2890475321901964,1.995607855801961,17.489630513156865
3.034255583,1.9707899789784316,-3.1414626396411767,1.9339727626254903,17.161369064490195
3.044275583,2.2510399168607846,-3.0265514033862746,1.8739405001745097,16.863558726235294
3.054295583,2.5102421485078437,-2.933504695131372,1.81722321917451,16.594624170686274
3.064315583,2.7408235206647062,-2.855416460072549,1.7668401924882353,16.35683969982353
3.074334583,2.9287201038607846,-2.7953984602490194,1.7217939826058826,16.162812388843136
3.084354583,3.0788915408019606,-2.755991425523529,1.6739292198607845,16.007947206686275
3.094374583,3.221432762684314,-2.733186665366667,1.6170960952137257,15.864549919843135
3.104394583,3.384700518233334,-2.7169017111705878,1.553995684056863,15.7066084402549
3.114414583,3.576210290998039,-2.6982319070137257,1.4877779216058824,15.52609021807843
3.124433583,3.7918176891156863,-2.6729223372490196,1.4145756600568626,15.322087286392156
3.134453583,4.024854685507844,-2.6380093119549017,1.336760702037255,15.094829717686276
3.144473583,4.255379305331372,-2.5965548574647053,1.2496865633901961,14.85508919717647
3.154493583,4.469217553762745,-2.5513406691117644,1.1510443104882353,14.618100518254902
3.164513583,4.653004278233333,-2.5024436549745097,1.051030381054902,14.406668943411765
3.174532583,4.804930361468628,-2.4513444346764706,0.959277420827451,14.232205027313725
3.184552583,4.940438586684314,-2.3995669216039217,0.870287075082353,14.079995352333334
3.194572583,5.059709678743138,-2.344075947917647,0.7565242492627451,13.94145743509804
3.204592583,5.132119774429412,-2.286411492505882,0.5855713549490197,13.817797687490197
3.214612583,5.154696665154902,-2.2379930056215684,0.394113387454902,13.704597316823529
3.224631583,5.155396978154902,-2.182476120735294,0.22149098120980396,13.612519324490195
3.234651583,5.137572807507843,-2.1165589710686272,0.12049702976470589,13.574430393274508
3.244671583,5.018664265668628,-2.058080462852941,0.15020035214313726,13.64564566498039
3.254691583,4.683813337688235,-2.0406286201039214,0.2796939594176471,13.499392207372548
3.264711583,4.083406960433333,-2.0405120254764704,0.40799923477058825,13.084465257549018
3.274730583,3.2817537976098046,-2.0211086852411766,0.4875962979862745,12.433911092941177
3.284750583,2.360645997550981,-2.0102605810843137,0.4910308750647059,11.62802415117647
3.294770583,1.4456731878274511,-1.9919054603000002,0.4156811834176471,10.790973883313725
3.304790583,0.5583280248862748,-1.9574817581039217,0.3028509885019608,9.956213779666665
3.314809583,-0.345741688133333,-1.9255944490843138,0.21415273411176472,9.10203688917647
3.324829583,-1.2235640527411762,-1.8947352582803922,0.21151886441960788,8.27549353417647
3.334849583,-1.9900101898980387,-1.8615346932803922,0.3296437245823529,7.557548124549019
3.344869583,-2.603384430260784,-1.805456320927451,0.5366986296215687,6.991690219019608
3.354889583,-3.0621363676117643,-1.7305247883392156,0.781276413052941,6.587591264137255
3.364908583,-3.3975341365352936,-1.6337228204529413,1.0123122170333334,6.327984774254902
3.374928583,-3.61986569502549,-1.5117945586294117,1.2069708185235293,6.194931307941176
3.384948583,-3.7389340148882346,-1.3764435489235294,1.3734805971117645,6.156310618352941
3.394968583,-3.7666273454274504,-1.2405933704333334,1.5162472692686275,6.1601008946470595
3.404988583,-3.7160120008470585,-1.1036080181,1.6373553616607843,6.169853021156862
3.415007583,-3.6272766968921566,-0.9705902824921568,1.7359013762686275,6.179301707372549
3.425027583,-3.4937554586764703,-0.8405536867078431,1.8059987892372549,6.188203606313725
3.435047583,-3.327221872754902,-0.7141525915313724,1.8448042601196077,6.188214677254901
3.445065083,-3.163351647696078,-0.6004560054921569,1.8538751862176472,6.154008640862745
3.455085083,-3.0033511672843134,-0.5084105411627451,1.8403351357470588,6.081961919058824
3.465104083,-2.833383053009803,-0.4457608356921568,1.8144496267137256,6.013141574843137
3.475124083,-2.612235418107842,-0.4212163454176471,1.784901831664706,6.016616356686274
3.485144083,-2.290737512715686,-0.4247291920647059,1.7582619601372549,6.139073220411765
3.495164083,-1.8230745105980386,-0.4196784646333333,1.7359645691745096,6.407202114764705
3.505184083,-1.1949936859117645,-0.39042137079019607,1.703225680539412,6.8275557904509805
3.515203083,-0.4230397466568624,-0.36178941882941174,1.6356815287943136,7.388927366
3.525223083,0.43302375269607873,-0.3527419188490195,1.5153086721864706,8.052145656196078
3.535243083,1.3271760605784317,-0.35574196469215685,1.349709087245294,8.724898589137254
3.545263083,2.223297985892157,-0.3949972699078432,1.164176298264902,9.349294163490196
3.555283083,3.0644222964411765,-0.4961981383196078,1.028260132245294,9.912923302529412
3.565302083,3.8197969600882353,-0.6411223299078431,0.9987420806099999,10.410682119058825
3.575322083,4.499778175382353,-0.8047214390843137,1.0188668898649018,10.848983233843137
3.585342083,5.111387026696079,-0.9585390277901961,1.02337600461,11.201854864039214
3.595362083,5.634636481323529,-1.091853400770588,0.9896394333747058,11.455304801686275
3.605382083,6.047452566303921,-1.197432033672549,0.9131542755178432,11.624360973431374
3.615401083,6.338467916068628,-1.2714193297901961,0.7997053993413724,11.72751902007843
3.625421083,6.519394079362744,-1.3109654823784311,0.6671076485766666,11.769439735215688
3.635441083,6.6124001093627465,-1.3153393888686276,0.5388719092237255,11.755579556254903
3.645461083,6.64037516104902,-1.2962728167313724,0.4381308555962745,11.71425327835294
3.655481083,6.628526374715686,-1.2703133633392156,0.3816685705315686,11.696077167196076
3.665500083,6.590743432813725,-1.254130577770588,0.3701249314727451,11.721302076686275
3.675520083,6.545816259617647,-1.255784972927451,0.3954937816903921,11.770071920901962
3.685540083,6.492156407441177,-1.2814577765980393,0.44883719631,11.836129126843137
3.695560083,6.407673256029412,-1.3301747308862746,0.5248084183099999,11.936231888294119
3.705579083,6.293999554362746,-1.395238794709804,0.6220211072276471,12.064867587490196
3.715599083,6.176956973754902,-1.4707026589647059,0.7293818395609805,12.194730336470588
3.725619083,6.07468834642157,-1.5458153635137253,0.822778549564902,12.312090996941176
3.735639083,5.975232321558824,-1.625437515317647,0.9042205641041177,12.424133639470588
3.745659083,5.876851485107843,-1.6989846021019608,0.9667440786472549,12.53311524347059
3.755678083,5.779512381676471,-1.7541678947294117,1.003160119255098,12.636726111392155
3.765698083,5.678941338676471,-1.7994784962196078,1.0314307132943137,12.740086104490196
3.775718083,5.57367023495098,-1.8514739040686277,1.0636351019217647,12.844992783137254
3.785738083,5.444288584656863,-1.916938040690196,1.105999887627647,12.965245506568628
3.795758083,5.286029932460784,-1.998365772547059,1.147379537882549,13.092861288333333
3.805777083,5.100519288380392,-2.0928376851941177,1.1920342136276472,13.221209343058822
3.815797083,4.883488036027451,-2.2018025466843136,1.2487554443472548,13.349436775137255
3.825817083,4.647106031007843,-2.3245727617039216,1.3131032385805883,13.479049050529413
3.835837083,4.401701084439217,-2.4591062274686273,1.3690311225354903,13.61741201709804
3.845856083,4.146792532184314,-2.6027665834686275,1.4010118494315684,13.779855864764707
3.855876083,3.8766340745078436,-2.757289913919608,1.40483428323549,13.968503508137255
3.865896083,3.5915959663686277,-2.925115728762745,1.3821183434256863,14.180069775764705
3.875916083,3.2914855019588236,-3.1041679569,1.3365140999237257,14.410371101529414
3.885936083,2.9725497089392157,-3.28809636735098,1.2815374547786273,14.664396927843137
3.895955083,2.6382859446254905,-3.4751568961941177,1.2318335850707842,14.93708562252941
3.905975083,2.282903791456863,-3.6649001505078425,1.1969154348747058,15.221543900411765
3.915995083,1.9067110194647061,-3.853342399331373,1.1710315022864706,15.50316850272549
3.926015083,1.5372146508431375,-4.035159225409804,1.1430832560707844,15.766943418254902
3.936035083,1.1571820582352945,-4.211663907684314,1.1175235401296078,16.0051867022549
3.946054083,0.7619356180000002,-4.374358085703921,1.1005278396786276,16.2292891232549
3.956074083,0.38815855998039234,-4.50807349735098,1.0879036351492157,16.45883435847059
3.966094083,0.0511654413921571,-4.605724394954902,1.0795152625688236,16.688443465
3.976114083,-0.2698225065098037,-4.659563940092157,1.0731932931341177,16.885865960862745
3.986134083,-0.6234009540784311,-4.660296303856863,1.0644796605831373,16.987731711666665
3.996153083,-1.0386063833725487,-4.62022385024902,1.0452919392968627,16.927835872960785
4.006173083,-1.549782243333333,-4.570767802170588,1.0061860877694118,16.66851294245098
4.016193083,-2.169190615352941,-4.521568045580392,0.9540112463456861,16.212833895392155
4.026213083,-2.8819615486274506,-4.445261227801961,0.9025050039535294,15.609794248274511
4.036232083,-3.6515642650509803,-4.323634137703922,0.8606097726005882,14.94204198427451
4.046252083,-4.418654558952941,-4.154744100939215,0.8468678986005882,14.269520542392156
4.056272083,-5.127818596992157,-3.9285916564490195,0.8581631829143138,13.616264828019608
4.066292083,-5.7498222042078435,-3.6387154474098042,0.8929685277182353,12.97541271407843
4.076312083,-6.284061729933333,-3.312752568017647,0.9310985936084313,12.404201624686273
4.086331083,-6.751923319560784,-2.95973491417451,0.9854772520398039,11.937504354352942
4.096351083,-7.115518804286275,-2.5821570972725487,1.0727319951182352,11.595497195137256
4.106371083,-7.293239948207843,-2.1932529598607844,1.2196582962554903,11.435461886509806
4.116391083,-7.28737966232549,-1.8318797838607843,1.4605407426809804,11.465231715725489
4.126411083,-7.169076674109804,-1.5391517502333334,1.7790346524456866,11.619119135137257
4.136430083,-6.99003595114902,-1.3384498278019608,2.120150252857451,11.835887479039215
4.146450083,-6.762475296521568,-1.2368110144666666,2.4637829535633333,12.107479983803922
4.156470083,-6.508237947149019,-1.2217472999960783,2.8401525866417647,12.443857278058825
4.166490083,-6.244455706188235,-1.2743470462509805,3.2309895326672553,12.795472880509806
4.176509083,-5.975049739345098,-1.3586400083686274,3.593253202255491,13.099428970725489
4.186529083,-5.7224824924039215,-1.4417761275254903,3.9087195384907845,13.334294335078432
4.196549083,-5.487950265560783,-1.5037951878784315,4.14964250825549,13.475321642686273
4.206569083,-5.257573523031372,-1.5411417669960783,4.282798834392746,13.492781162294117
4.216589083,-5.020880887560784,-1.5536876761529412,4.301000889961373,13.387947193352941
4.226608083,-4.776439659580392,-1.5413608885450978,4.221303833608431,13.203332742039215
4.236628083,-4.526358384952941,-1.5035234786660783,4.067660480451568,13.048481770313726
4.246648083,-4.275728876560784,-1.4435059288425491,3.868223534333922,12.943536144156864
4.256668083,-4.028718548266666,-1.372707426097451,3.6533150848829417,12.866848833509803
4.266688083,-3.790940618011765,-1.304504195705294,3.4539769739025497,12.788750472490198
4.276707083,-3.562699238482353,-1.2509883455288235,3.2790758217456863,12.69224913409804
4.286727083,-3.341760068247059,-1.215130682487647,3.1254825367849017,12.576352826705882
4.296747083,-3.128215430272549,-1.191884675381765,2.9859860575496078,12.444261617411764
4.306767083,-2.9261897497921567,-1.1760794794968823,2.856061630863333,12.298406610176471
4.316786083,-2.7394704747725487,-1.161602369728255,2.732446951784902,12.148101138568627
4.326806083,-2.5610235481647057,-1.140735055808647,2.6101366833339217,11.999665936431375
4.336826083,-2.3803014927725488,-1.10591577801649,2.4896169985496077,11.848390531705881
4.346846083,-2.1874794100588235,-1.051284015413353,2.3740126552162746,11.688831486156863
4.356866083,-1.964498547005882,-0.9751722653466862,2.2686618631378432,11.508504736490195
4.366885083,-1.6991217129882348,-0.8832981086721764,2.1777309239809806,11.298849824156864
4.376905083,-1.3998761233784311,-0.7784965406917844,2.103015466065294,11.055657334411764
4.386925083,-1.0828466946176467,-0.6648012874839411,2.0426736537437256,10.777779567235292
4.396945083,-0.7467372738098036,-0.5511058493878627,1.990423163967255,10.465307077901961
4.406964083,-0.39329700110392124,-0.442954627958451,1.937785654439804,10.126003865764705
4.416984083,-0.03523544735098002,-0.33931321062119607,1.88460791093,9.769978027509804
4.427004083,0.3215590663294121,-0.23520922119962742,1.8344001631417646,9.405373177066668
4.437024083,0.6796094386549023,-0.12609992776433332,1.786185335624118,9.04983535905098
4.447043958,1.033668742321569,-0.006563212950607824,1.7410302127515689,8.729651892011765
4.457062958,1.3834655721254905,0.12004439212782354,1.6995379692005883,8.433858446364706
4.467082958,1.7224686281450985,0.24571270795135297,1.6600805567005885,8.163678229835295
4.477102958,2.030250246831373,0.3655277459121373,1.62170528610451,7.922009710050981
4.487122958,2.3006186166686278,0.46825580379449017,1.5838213765333335,7.704694895835294
4.497142958,2.5343205645803923,0.5488627915003726,1.5556218605647059,7.506446754070589
4.507161958,2.717707015520196,0.6096925267415491,1.5448012727117648,7.345254045305882
4.517181958,2.8439000329488238,0.6494970961768433,1.5554198593313724,7.230043900345098
4.527201958,2.9154270586252946,0.6615602187925295,1.5952295493882354,7.1503229350039215
4.537221958,2.9377903167350983,0.6396363115729216,1.6653627851509805,7.076123376733334
4.547240958,2.9287460986625495,0.5868486031258627,1.7596057878862745,6.97401211594902
4.557260958,2.8986016869860793,0.518549677596451,1.8615732605921569,6.853691643792157
4.567280958,2.8414171647429414,0.4504520496395883,1.9442775399450982,6.742060693537256
4.577300958,2.7610985981115688,0.39185521986507843,1.9447428980431374,6.678822017458824
4.587320958,2.6752737629468633,0.3394436651003726,1.827865868101961,6.6259406484588235
4.597339958,2.593479244433334,0.27593515555919607,1.6334011648666669,6.535581587576471
4.607359958,2.471938979758824,0.17675015349801965,1.4034994684941176,6.40893724585098
4.617379958,2.250608447386275,0.03225983537841179,1.1409376560823532,6.208225490164706
4.627399958,1.923758923758824,-0.13405585577845097,0.8177346337686274,5.934219976831373
4.637418958,1.5506198599941179,-0.2869618177196274,0.4358704179843138,5.654856604831371
4.647438958,1.1782213805235298,-0.398795873523549,0.02738121535686283,5.421760017164707
4.657458958,0.8191822755235296,-0.4591037003490392,-0.3969929690549019,5.215681387086274
4.667478958,0.4815521772882355,-0.47734972754511756,-0.8738165517411763,4.993283242517647
4.677498958,0.14908269405294144,-0.4634651872313922,-1.391581891407843,4.766007935262745
4.687517958,-0.17077379469215656,-0.43643567617256857,-1.908001855407843,4.567009568203922
4.697537958,-0.4563076664176468,-0.42497642905492156,-2.4040780492509803,4.423539921929412
4.707557958,-0.7108941690450977,-0.434833974760804,-2.8410270377411764,4.359275729184314
4.717577958,-0.9448319346921565,-0.46041442538825494,-3.171577957839215,4.391114727419608
4.727597958,-1.1709462232607841,-0.5105639876431569,-3.380834557407843,4.519475885184314
4.737616958,-1.3994047178882352,-0.5923738350353137,-3.476579870368627,4.7137397229686275
4.747636958,-1.6337075446921565,-0.7043635987574706,-3.4674688306627455,4.869881095478431
4.757656958,-1.8669111350647056,-0.8397466678162943,-3.378962806368627,4.970072477517647
4.767676958,-2.0925250796725487,-0.9827683903653137,-3.2428817717843135,5.036575839341176
4.777695958,-2.309276812260784,-1.1202574975417843,-3.0789728949019604,5.108100874870589
4.787715958,-2.5071710737117647,-1.2417502536006078,-2.907740922156863,5.195678151890196
4.797735958,-2.6517779621039215,-1.3440065472437452,-2.766575957137255,5.259587168419607
4.807755958,-2.739999788803922,-1.4238360831398236,-2.6802615896372552,5.285342601164706
4.817774958,-2.759046509070588,-1.4859871787756862,-2.6507002342058827,5.294557543145097
4.827794958,-2.7302931241882353,-1.5523334395247061,-2.677752434754902,5.350944739400001
4.837814958,-2.6882954576392155,-1.6473366576992157,-2.746854645892157,5.455485405909804
4.847834958,-2.578415160090196,-1.7688107141188236,-2.8224273285392156,5.596352819262745
4.857854958,-2.2657413910392155,-1.9191721971141176,-2.837384815735294,5.870432006576471
4.867873958,-1.6104278817392157,-2.044623412102353,-2.7562493558058825,6.465398341145098
4.877893958,-0.5335429075215683,-2.0834849431690197,-2.6013818020607844,7.4893960481843145
4.887913958,0.9052870918882355,-2.0295531109141174,-2.392032483982353,8.885349541262745
4.897933958,2.4587237533235293,-1.8982465314160786,-2.163600513943137,10.398660984517647
4.907953958,3.8470589380058824,-1.7504164212964706,-1.974594771237255,11.74583202404706
4.917972958,4.918150453731373,-1.6615353410984315,-1.857949973198039,12.771071199713726
4.927992958,5.677581239194118,-1.6237071936121568,-1.8142098879843136,13.486366274831372
4.938012958,6.219498589043137,-1.6016218244180396,-1.7890496629862744,14.000215725666667
4.948032958,6.6107063945607845,-1.5916403062768627,-1.742694175527451,14.388789045054901
4.958051958,6.85999650932549,-1.5997741214709804,-1.6936987160666668,14.636857440917646
4.968071958,6.97803522050196,-1.6134555907121568,-1.6583810863784312,14.749777789094118
4.978091958,6.999992492678432,-1.6275684605160785,-1.6316836986078431,14.76261418225098
4.988111958,6.954725518882353,-1.6401581163003924,-1.6059035318831372,14.738278117721569
4.998131958,6.863176422986275,-1.6544407301866666,-1.576323625877255,14.767940271682354
5.008150958,6.7362398288980385,-1.672363416390588,-1.5454625024870587,14.85175755262353
5.018170958,6.567791328566079,-1.6942220726964707,-1.5063290486654901,14.992350222290197
5.028190958,6.365542132470784,-1.7270847474454902,-1.453782116520392,15.181460877172551
5.038210958,6.139178061755098,-1.7708304405533333,-1.390666800694902,15.409595422709804
5.048229958,5.89403049868451,-1.8121117328964709,-1.3118486152615685,15.659239621235296
5.058249958,5.63785298298451,-1.8515552123905883,-1.2220696979772547,15.909442729352943
5.068269958,5.377050136209999,-1.8935636661945099,-1.1274091581733334,16.15079462829412
5.078289958,5.111797369237451,-1.931890536747451,-1.0260623731341176,16.37660214154902
5.088308958,4.851306144849215,-1.9647999777572547,-0.9144387282321567,16.582237387058825
5.098328958,4.603798803190392,-1.9963392771298039,-0.7986798750949018,16.765101466431375
5.108348958,4.362665084272549,-2.0382435974709803,-0.6865885790556862,16.942345770980396
5.118368958,4.128597206613725,-2.0918665820960785,-0.579429274702745,17.116806402509805
5.128388958,3.89007522957451,-2.1476224590156865,-0.48077836850078426,17.294163860156864
5.138407958,3.647540480456863,-2.2012681574862745,-0.39070271361450976,17.47842023780392
5.148427958,3.393512421280392,-2.250878451682353,-0.30706926871254897,17.674745510588235
5.158447958,3.1187327485941174,-2.295711906035294,-0.2236837199478431,17.88715335805882
5.168467958,2.8183675404568627,-2.3378080695058823,-0.12884468816352937,18.121474508529413
5.178486958,2.5204450583,-2.370553245329412,-0.012024837673333313,18.355923861137256
5.188506958,2.259736251398039,-2.389458715192157,0.12816109133058826,18.564084408
5.198526958,2.023457593045098,-2.398386708388235,0.28919733433058825,18.752141897019605
5.208546958,1.7949405287117648,-2.4013672749568626,0.4732962140560784,18.928751023294115
5.218566958,1.5682533906921567,-2.3994269050941175,0.6634665845266667,19.102005372509808
5.228585958,1.3564274556921567,-2.385079139172549,0.826204593722745,19.263042203686275
5.238605958,1.1791571893784314,-2.3576303999568626,0.9432401347972549,19.395046412901962
5.248625958,1.056126222888235,-2.3025675943686275,1.0098518333462745,19.47714855917647
5.258645958,0.9995844272215685,-2.214182934192157,1.031046809169804,19.499597590156863
5.268664958,0.9990046012607842,-2.104613633990196,1.0263422999737255,19.469725011803924
5.278684958,1.034862353162745,-1.9927366871411767,1.0096713148933334,19.404678416960785
5.288704958,1.0823666579862743,-1.884651613766667,0.9766366757403921,19.327405250039217
5.298724958,1.1123646399078428,-1.7838832444666668,0.9262642084541176,19.264075376529412
5.308744958,1.1061356469470587,-1.701142001535098,0.8780301997854902,19.234564057686274
5.318763958,1.06399516502549,-1.6301211641708238,0.8431406952070589,19.24818926229412
5.328783958,0.9981101836549019,-1.5374447623472942,0.8094399811678431,19.283767373274507
5.338803958,0.9453279412039215,-1.4031443769159215,0.7818551336776471,19.300861989215687
5.348823958,0.9449040066156862,-1.2191238097590589,0.787296346187451,19.28184125645098
5.358842958,0.9312380547137254,-1.0023329524257254,0.8480886262854902,19.21254587427451
5.368862958,0.7315986687921567,-0.7807092681708235,0.95108714656,18.993904602039215
5.378882958,0.17390507832156848,-0.625368164484549,1.0730167498070586,18.507109883588235
5.388902958,-0.7938113248745099,-0.5820353464257254,1.205856592532549,17.675776673
5.398921958,-2.04569987514902,-0.6249568558570981,1.3393736803168628,16.566536944568625
5.408941958,-3.2857029849529407,-0.7053064844061175,1.4860215966305883,15.452477977313725
5.418961958,-4.259622469854902,-0.7567603655629804,1.6943172580031374,14.604368014960784
5.428981958,-4.86890449632549,-0.7318641652884706,1.9967058320815687,14.138544467313725
5.439001083,-5.165714666129412,-0.6853666478178823,2.376126381907059,13.995129275156865
5.449020083,-5.288854001031373,-0.6927263160218038,2.766959320716863,14.034896922215687
5.459040083,-5.339923857698039,-0.7498040950492549,3.116781723324706,14.156446253784313
5.469060083,-5.3258121645607845,-0.8229004059237648,3.4229715377756866,14.338130689862744
5.479080083,-5.236932514560785,-0.9030737874865098,3.6785004337756866,14.564031313803921
5.489099083,-5.103797421874511,-0.9853840920551372,3.8835761380345097,14.80024550717647
5.499119083,-4.939223364039216,-1.0682914890551372,4.0426861570156865,15.000247256000002
5.509139083,-4.755955906803921,-1.1417260412865098,4.14233616032353,15.074563762588234
5.519159083,-4.571185388372548,-1.199860641494353,4.1625777068000005,15.034675389235295
5.529178083,-4.375902802980392,-1.2399813346257254,4.09664564962549,14.942111816098041
5.539198083,-4.163472025111765,-1.265846739566902,3.96709455617451,14.841643231607842
5.549218083,-3.942557138041176,-1.2721332358806274,3.79901537917451,14.72740741454902
5.559238083,-3.7297119417274507,-1.2527583062531764,3.593120080174509,14.610303351901962
5.569258083,-3.5181556264529417,-1.226728846802196,3.3628798758803917,14.505716265392158
5.579277083,-3.299740355198039,-1.2051558542139607,3.1252880132137255,14.41142298937255
5.589297083,-3.0718080870411764,-1.182476192939451,2.8938389028215683,14.317273449235294
5.599317083,-2.8363332490137254,-1.159447025819843,2.6739853025862748,14.219590156078432
5.609337083,-2.604526873754902,-1.1410229537610195,2.4711998050960786,14.124287221313725
5.619356083,-2.382556799352941,-1.1259995248786665,2.28707756517451,14.02325441227451
5.629376083,-2.1744917820588237,-1.1082358213100392,2.12890683044902,13.909431838137255
5.639396083,-1.961441273882353,-1.075580176682588,1.9893415117176472,13.782312280333334
5.649416083,-1.716972082372549,-1.021984162349255,1.8635596739294118,13.63024366672549
5.659435083,-1.4206664641764706,-0.9491264966923921,1.7627058693607842,13.42968223629412
5.669455083,-1.06674759392549,-0.8685846954041567,1.6837529113411767,13.179228968568628
5.679475083,-0.6632608790686272,-0.782071946784549,1.6091916794784316,12.885493561784315
5.689495083,-0.24818680580392138,-0.6890087287180784,1.524078390262745,12.569164282529412
5.699515083,0.16433578915294142,-0.5925016898141569,1.425223837572549,12.240707623549019
5.709534083,0.5746716572882355,-0.48873295365729413,1.3218003250431376,11.893987304058825
5.719554083,0.9923481314509808,-0.36327889532396074,1.224818205592157,11.523638665098039
5.729574083,1.4233402576686276,-0.244719982594549,1.1538318037490196,11.12447544507843
5.739594083,1.8417955580039216,-0.1517764260827843,1.1258157527705883,10.728860018417647
5.749613083,2.2275090303490197,-0.07335007288121567,1.1411803781470589,10.377587610437255
5.759633083,2.5595566370000005,-0.02569082830866666,1.199132579617647,10.095024769241176
5.769653083,2.839152019117648,-0.019467762796901957,1.2891537894803922,9.90340189547647
5.779673083,3.0725784715490194,-0.04588769588121568,1.3866716572058824,9.794928313339215
5.789692083,3.273475455960784,-0.09208614261258824,1.4768699688980391,9.751974518123529
5.799712083,3.4536535310784315,-0.10823197034003922,1.5292644725019608,9.69848800375098
5.809732083,3.6082299364764707,-0.10639245922631373,1.5403376772784316,9.592497026417647
5.819752083,3.746642966764706,-0.10982873601670588,1.5612713169666668,9.494580802535294
5.829772083,3.8882708134313724,-0.12484335681627451,1.609915186790196,9.422244592162745
5.839791083,3.993673703058824,-0.1663093624143137,1.6960990409862746,9.351377141221569
5.849811083,4.0361636679156865,-0.23736281235156861,1.8105139861254902,9.238669812217648
5.859831083,4.018071826619607,-0.3300558787378431,1.922058728011765,9.108850146435293
5.869851083,3.947068427697059,-0.4361118077672549,1.9793088336627453,8.997375187964707
5.879870083,3.852659544603686,-0.5217942316927451,1.928306758839216,8.906155136258823
5.889890083,3.7599121148762356,-0.5664173582692157,1.7412499619176471,8.781244862454901
5.899910083,3.6346131653899607,-0.5823152755221569,1.4422182399568628,8.598490573435294
5.909930083,3.4232067151644707,-0.598885292939804,1.0648809500352943,8.344940436082354
5.919949083,3.0969107251056474,-0.6466998412731373,0.6369482533686275,7.998409597101961
5.929969083,2.683092924623294,-0.7380375975986274,0.16782454783921574,7.570169742200001
5.939989083,2.225883147560549,-0.8557514758821568,-0.33451347508235285,7.09249711492549
5.950009083,1.7497339150311375,-0.943889008080196,-0.8481743215921568,6.6111050064941175
5.960029083,1.301557229089961,-0.9519503349978431,-1.3579266597098039,6.1550953241999995
5.970048083,0.9221490560311376,-0.8984247824723529,-1.8391244870431374,5.732101091709804
5.980068083,0.6153245635213336,-0.819439270644902,-2.2640507402784316,5.351060797180392
5.990088083,0.37073806648800034,-0.7333785318645099,-2.6022846838078433,5.026701778552941
6.000108083,0.18841951632329446,-0.65061004349,-2.853179650023529,4.7661475580627455
6.010127083,0.05237630235074542,-0.5718497110998039,-3.0409436275725494,4.574574543788235
6.020147083,-0.05052819097670556,-0.49241717390372547,-3.177659750023529,4.47054769565098
6.030167083,-0.11927063641396045,-0.4101728267860784,-3.258216725419608,4.456074961317647
6.040187083,-0.16996215100219575,-0.3323413274527451,-3.294193049694117,4.474922680847059
6.050206083,-0.21085137463552908,-0.25421455233509804,-3.2980149962039214,4.473843455258823
6.060226083,-0.2275538544316075,-0.1844466442958823,-3.2538052993215687,4.427497642396078
6.070246083,-0.20653149040415653,-0.14653611841745096,-3.1384208055764704,4.311648258003921
6.080266083,-0.16639395643748983,-0.11786449136647056,-2.9516151522823533,4.179227715631373
6.090285083,-0.11970299930807811,-0.07412431155274507,-2.7177652897921565,4.075788239180392
6.100305083,-0.05824225346494085,-0.01723138765078429,-2.4601888364,4.005794768905882
6.110325083,0.00310969117427484,0.04547801389627454,-2.1828679523019603,3.9782187798862743
6.120345083,0.05219414869976504,0.11210521903352944,-1.8846854180666668,3.9862571879450983
6.130365083,0.09449081147427485,0.1856640718962745,-1.5411128862627452,4.046674896788235
6.140384083,0.15511157755270621,0.24144825765313727,-1.1278430802235295,4.187509134454902
6.150404083,0.23749063419976502,0.2680569841492157,-0.6119769392039215,4.430218722062745
6.160424083,0.3424105323370199,0.28313317842960783,0.019712718364706037,4.785215085670589
6.170444083,0.4702320365723141,0.28746579898254904,0.7141128006784314,5.220440205905882
6.180463083,0.6035644670468239,0.283822192537451,1.4007521831490197,5.663603340298039
6.190483083,0.7261893156997651,0.27174316062176473,2.025792971756863,6.06540427982745
6.200503083,0.835590709082118,0.2515882353435294,2.550967134933334,6.395665729278432
6.210523083,0.9172452928507455,0.2346682821258824,2.961344690247059,6.638060341788236
6.220542083,0.9649042393232944,0.221817893547451,3.255408204952941,6.793690489121569
6.230562083,0.9659115053429023,0.20046522347509807,3.4445266384039215,6.8794895389254895
6.240582083,0.9254048400860396,0.18366060085352942,3.5412243366588236,6.92930111202353
6.250602083,0.8844303732213337,0.1786469258564706,3.5666755695588237,6.951297018586274
6.260621083,0.8571876308389808,0.1769852216913726,3.548242543245098,6.93636521517451
6.270641083,0.8315243704507455,0.17894363478941178,3.499463465160784,6.91435665802353
6.280661083,0.7814279519409415,0.18665027648352944,3.424041182062745,6.883332166945098
6.290681083,0.716725053999765,0.20663120123254905,3.315988133670588,6.845769440572549
6.300700083,0.6533261797468238,0.24270585044039217,3.168864976298039,6.814206163513725
6.310720083,0.6111222612703533,0.25610527250509807,3.006601910062745,6.841791368886274
6.320740083,0.6022885572919219,0.25599020847176474,2.8530437428078432,6.937741919709803
6.330760083,0.5802821169115298,0.2607410998526667,2.676988161101961,7.058799751866667
6.340780083,0.5154362316174121,0.26794306664482354,2.4788676525333333,7.191149894788235
6.350799083,0.4297101456174121,0.2614916043114902,2.2762043045333336,7.3474999519843145
6.360819083,0.33615089734878467,0.23605017409188236,2.087268418864706,7.535356428831373
6.370839083,0.2302560619781964,0.19883405667423534,1.9141140421156866,7.733311704182353
6.380859083,0.12533083254780428,0.15891804188011768,1.7552821793470588,7.920649695809804
6.390878083,0.03748380950392192,0.12335517023698044,1.6084142586607844,8.091090279162746
6.400898083,-0.02357581304313691,0.09725717510756865,1.4751897952882354,8.237473666496077
6.410918083,-0.04965870287058789,0.08060546864090198,1.343067050582353,8.372291151594117
6.420938083,-0.04438735340392123,0.07543372678011767,1.197410455209804,8.515833249143137
6.430957083,-0.022628640058823184,0.07984828287815687,1.0371810850137255,8.674011839103922
6.440977083,0.0008750988411768146,0.09767020349776473,0.8709516803470588,8.841144558515687
6.450997083,0.020292460923529754,0.13009168719305883,0.700607716209804,9.013180955594118
6.461017083,0.04972055716470623,0.15751627511658825,0.526150499582353,9.185050808339216
6.471036083,0.06758386404705917,0.15720326563619608,0.3548995978960785,9.35029116847647
6.481056083,0.046658221282353286,0.12995532954992156,0.18991073170000006,9.515324245672549
6.491076083,-0.01301887726666633,0.0790631924087451,0.024718898268627533,9.69234338392745
6.501096083,-0.09973785488039183,0.010309730432274514,-0.14733084780980385,9.885364330398039
6.511115083,-0.19683495381372515,-0.06098202649125489,-0.32685334688823525,10.0839622275549
6.521135083,-0.28744802515490164,-0.1298707626657647,-0.5043647133,10.275500225162745
6.531155083,-0.3574657741215683,-0.20102637692066663,-0.6727567966529412,10.455142477358823
6.541175083,-0.4049861028999997,-0.2752070037638039,-0.8379844356921567,10.625810661947057
6.551194083,-0.42708690844901925,-0.33713122743047064,-0.9879420251431372,10.774599227280392
6.561214083,-0.4387189121352938,-0.38437184003831376,-1.1173746609274509,10.900473949319608
6.571234083,-0.4657972646254898,-0.42761305745007844,-1.2529683358098038,11.036136449829412
6.581254083,-0.5020564235745094,-0.45566956027556865,-1.4046868658294118,11.18935534212353
6.591274083,-0.5361220826980388,-0.47611571415596077,-1.578108311280392,11.306507031829412
6.601293083,-0.568882889788235,-0.5102344697206667,-1.7657100343196077,11.36101994357451
6.611313083,-0.6174218536980389,-0.5622140757638039,-1.9642414072411765,11.370631499809805
6.621333083,-0.6750277437999996,-0.6224294793226274,-2.189862357045098,11.346474784437254
6.631353083,-0.7215612130490192,-0.6801880978324314,-2.4416997453588234,11.291287713064705
6.641372083,-0.7504140464490192,-0.7394971256343921,-2.733070089986274,11.175903424554901
6.651392083,-0.7889788714549016,-0.7940601891951764,-3.078876728221568,10.968130971280392
6.661412083,-0.8603750398666662,-0.8285641587500784,-3.49132998775098,10.644625809280393
6.671432083,-0.9808108171019605,-0.8626242271873333,-3.961621645966667,10.222301727652942
6.681451083,-1.1431439524745095,-0.9079633596520392,-4.426266304005882,9.780519123378433
6.691471083,-1.3197888131411761,-0.9409635715343921,-4.807330368456863,9.400304253005881
6.701491083,-1.4780624588470586,-0.938793426171647,-5.0269101929666675,9.167279552417648
6.711511083,-1.6019776224647058,-0.9121509377383138,-5.006865112378431,9.172010652613727
6.721530083,-1.6867020919047053,-0.8956832551853725,-4.727769277280392,9.439540754182353
6.731550083,-1.7289829370988232,-0.9141712883324314,-4.241577514927451,9.92030541222157
6.741570083,-1.7260345445301957,-0.9665240441816471,-3.6425103908882352,10.52103969902549
6.751590083,-1.6994633104360781,-1.0286777108581175,-3.010261086143137,11.152923265750982
6.761609083,-1.6674292062086271,-1.090053385431647,-2.3921893416725495,11.765459897417646
6.771629083,-1.641884541112549,-1.1409846974877256,-1.8562128375352942,12.29533325939804
6.781649083,-1.6216820470145097,-1.1656548656289019,-1.4691474890588234,12.65299934029412
6.791669083,-1.5829741443772547,-1.155147952229098,-1.244804786509804,12.82385978572549
6.801688083,-1.5299140674752938,-1.1056118488800784,-1.1398808813137253,12.857236680980394
6.811708083,-1.4955157318890195,-1.0326430058722353,-1.0785046191490195,12.857517736058824
6.821728083,-1.4811676965498037,-0.9666477872898824,-1.0437803098745098,12.854516352490196
6.831748083,-1.4651128302831369,-0.9106633114741962,-1.0319685559137255,12.861860374705882
6.841767083,-1.4086317051517645,-0.8541865459570588,-1.0224454136196077,12.86975097882353
6.851787083,-1.3036758179752936,-0.8018088563139216,-0.9913929035607842,12.857047005666667
6.861807083,-1.1588266886223526,-0.7436223764021568,-0.9275127948549019,12.816804316117645
6.871827083,-0.9868371746811763,-0.6635885863629412,-0.8261674658941176,12.743198958764705
6.881846083,-0.801306202936078,-0.5659395289119608,-0.6946604788156863,12.637768623196077
6.891866083,-0.6257782464458821,-0.46026427367666667,-0.5555595751882353,12.519611390294116
6.901886083,-0.47538620887725463,-0.36093473791196073,-0.4279723321882352,12.410829433078431
6.911906083,-0.35809363679882317,-0.2838869804609804,-0.3192784289529411,12.317538234352941
6.921926083,-0.27427158479882324,-0.2325870673884314,-0.22020311524705877,12.231480238294116
6.931945083,-0.22014394103999968,-0.20933336718843137,-0.11803108177647054,12.139173243392156
6.941965083,-0.18990838158117615,-0.20980380722764708,-0.00730697946274504,12.033557942843137
6.951985083,-0.17360769435176443,-0.22543949404137256,0.11746083940000009,11.910362085823529
6.962005083,-0.16029827068509772,-0.24756497827862747,0.26665725892941183,11.761815615137255
6.972024083,-0.14154653384784283,-0.26416011580215687,0.4534363704196079,11.57647821562745
6.982044083,-0.10078636169490165,-0.26464517100215684,0.6867622536156863,11.346261725470589
6.992064083,-0.020787199204705578,-0.25382977111784316,0.9628932063784315,11.114818357156862
7.002084083,0.1017858643247062,-0.23559346921196078,1.2608110566921569,10.936100357823529
7.012103083,0.26030326154039246,-0.23544099446686276,1.5424264455941177,10.790019140745098
7.022123083,0.43432238989333366,-0.27066427187862746,1.779845689319608,10.680865395764707
7.032143083,0.593925477481569,-0.31871159385901965,1.9690190292607843,10.584613267490194
7.042163083,0.7313755115011769,-0.3507871144472549,2.145725153907843,10.470938250196077
7.052182083,0.8477546854227453,-0.34841434874137256,2.336783854103922,10.315438484450981
7.062202083,0.9299402049521571,-0.32862138904725485,2.5219072176137254,10.13717013372549
7.072222083,0.9720668312729416,-0.3039315123511765,2.7200763613196077,9.934473080921569
7.082242083,1.0093969120650983,-0.26468363367862746,2.951495501888235,9.75366211927451
7.092261083,1.0473639954121572,-0.2516222738335295,3.1835317644764705,9.630648722098039
7.102281083,1.0962779836749024,-0.29645279025901966,3.396447196182353,9.573321021215685
7.112301083,1.1580069232435297,-0.36866538476294125,3.5845759253392155,9.566616831941177
7.122321083,1.2147023144474511,-0.43146036489627454,3.7484864388490196,9.560871834686274
7.132340083,1.259145110314118,-0.4710880059060785,3.8723581087941175,9.517840256686275
7.142360083,1.2976925556219612,-0.4991183997688236,3.933463174794118,9.48050827364706
7.152380083,1.3470193917082354,-0.5245457364766667,3.929896694284314,9.500574866235294
7.162400083,1.4178690747729412,-0.5417229700452941,3.868192483558824,9.57090998245098
7.172419083,1.5151570723807848,-0.5409480276727452,3.7665907369901963,9.655378273392158
7.182439083,1.6089197349494122,-0.5103932818982354,3.633375629186275,9.69326136917647
7.192459083,1.6477599881650982,-0.4487681676733334,3.4660342217352946,9.63679845407843
7.202479083,1.6178040374003924,-0.3885647208086274,3.257702330656863,9.535045979745098
7.212498083,1.5734698951258828,-0.36379933621254906,2.9443374207745103,9.328705607431372
7.222518083,1.5466492450376474,-0.3793399885831373,2.4614995296960784,8.945709609607842
7.232538083,1.514525123771765,-0.4013138207066667,1.8049324918921568,8.41280996827451
7.242558083,1.4473323911227454,-0.38248263016549017,1.0454698563627451,7.781656302372548
7.252577083,1.359480584254118,-0.32005154892627447,0.2657259241078432,7.126727977470589
7.262597083,1.2816639838658828,-0.24318683226156865,-0.4889934959117646,6.502707294156864
7.272617083,1.1986910177952945,-0.1594040454576471,-1.2130587847745098,5.958998131117648
7.282637083,1.0995273939129415,-0.06374622002627456,-1.8594553016764706,5.561155115117647
7.292656083,0.9945111600227454,0.023637723601176427,-2.3592866690098035,5.353153065745097
7.302676083,0.8817094932090199,0.08260995464254899,-2.6983293283431373,5.325808396450982
7.312696083,0.7447009383266671,0.09848693656411762,-2.90697289895098,5.432276302470589
7.322716083,0.5684351434835297,0.07252223499549017,-3.031967899272549,5.56574146254902
7.332735083,0.35712152783647094,0.048606896544509774,-3.0542150529,5.679535294980392
7.342755083,0.19021826315019644,0.0503301799170588,-2.984933928429412,5.708496327862744
7.352775083,0.05833184338549056,0.07789295130921566,-2.86840143135098,5.672926186137255
7.362795083,-0.08263510165372512,0.11955619725039211,-2.7230899592058826,5.6231886523137256
7.372814083,-0.24478382043803887,0.16177718730921561,-2.5811355799509803,5.586270775764705
7.382834083,-0.4164702938301957,0.19451311364254897,-2.4806805870156863,5.569217425588235
7.392854083,-0.5954657924968624,0.21935997948568622,-2.48641785207451,5.591673026980392
7.402874083,-0.7558638606537251,0.25472273017196073,-2.552694768878431,5.656768465117648
7.412893083,-0.8703639401047055,0.29933198107392156,-2.546260515701961,5.679307580156863
7.422913083,-0.8474657678105878,0.36384944774058814,-2.355733900741176,5.759130874196078
7.432933083,-0.6174619486733329,0.3705174175641176,-1.9099502050352941,6.079515378882352
7.44295325,-0.1516407563007839,0.3167495380739215,-1.2059254567411766,6.6980810749607835
7.45297225,0.4771104603658826,0.21103016505431368,-0.2823564488588237,7.558278109431373
7.46299225,1.191524836679608,0.07153703937784306,0.7445904260039214,8.545820116843137
7.47301225,1.9358595587776473,-0.06333321024764713,1.7126178782392154,9.534689446941178
7.48303225,2.633525566071765,-0.17008455092019611,2.467781938905882,10.399870293313727
7.49305125,3.198315606899216,-0.25117257387117653,2.9148545329647058,11.060639447
7.50307125,3.5962553319972552,-0.31013713188098047,3.0783946425745095,11.494410500411766
7.51309125,3.827635597173726,-0.35365317415941183,3.0848592898098035,11.707815133666667
7.52311125,3.9202780564874513,-0.3708823619633334,3.0733327194568623,11.784992801117648
7.53313025,3.914638692154118,-0.36815121925745103,3.1164553387117646,11.795110517411763
7.54315025,3.855072223487451,-0.3584760149633334,3.203807019456862,11.782085176352943
7.55317025,3.7695338044305884,-0.3440069938456864,3.2925636141431367,11.754922676490196
7.56319025,3.6738693550384314,-0.3540037348064706,3.3516396963196073,11.738518078882352
7.57320925,3.5882862993913727,-0.3826541656966667,3.3954243694294113,11.73762738937255
7.58322925,3.517358020011765,-0.424939463667255,3.3846012076450975,11.798685937705883
7.59324925,3.424359436611765,-0.4931472715162746,3.281793593213725,11.907921972882352
7.60326925,3.2943235344803927,-0.555450164022157,3.1179811294686273,12.038769142607844
7.61328825,3.111733866982353,-0.5813278251790197,2.942811882468627,12.164245450117646
7.62330825,2.8639349671,-0.5896158119633335,2.8055721705078422,12.286083443058823
7.63332825,2.5792589620803925,-0.6230792494339217,2.7212760841549017,12.448903718215687
7.64334825,2.270571850511765,-0.6905665857084314,2.7027849188823523,12.682272290431374
7.65336725,1.9366904883352942,-0.7593429234927451,2.752430704815686,12.933367457039218
7.66338725,1.5520695367078434,-0.8294948732182353,2.8468923733537257,13.179249997862746
7.67340725,1.1174603458647063,-0.9026948532182354,2.955764067775294,13.436530655705882
7.68342725,0.6423397991000002,-0.9960946387280393,3.0512414406772543,13.727769799901962
7.69344625,0.16312185902156884,-1.1234375197182354,3.1191391712458825,14.078687282411764
7.70346625,-0.27862876262549,-1.267888076766667,3.16131874926549,14.491388960215687
7.71348625,-0.649688625252941,-1.4170086243764708,3.1832405683909797,14.876741085509803
7.72350625,-1.0017395164686274,-1.557921100019608,3.2248085505752937,15.24369497135294
7.73352525,-1.3638471543117647,-1.674617359282353,3.303485795183137,15.606301222901958
7.74354525,-1.7075005037039215,-1.7700853866725492,3.412270536614509,15.933936492470586
7.75356525,-2.0039255941941176,-1.8686735044490197,3.520722548555686,16.230114955039216
7.76358525,-2.268799212233333,-1.9748785561000002,3.6155850465949015,16.501672857980395
7.77360425,-2.518954064154902,-2.0733582735882354,3.704827808614509,16.752182515803923
7.78362425,-2.74722768362549,-2.1658545410392156,3.7974953880184312,16.956333312568628
7.79364425,-2.942563650684314,-2.265324756803922,3.8920617991243134,17.09863584954902
7.80366425,-3.1085450989196075,-2.3662903263137256,3.9935901000850977,17.197172104607844
7.81368325,-3.25939969717451,-2.462617551882353,4.114856652024313,17.271335446843135
7.82370325,-3.3913033890764703,-2.5512046919803923,4.2626472977301955,17.32468662635294
7.83372325,-3.461646173017647,-2.621782766137255,4.429064283298823,17.343766553215687
7.84374325,-3.468642079880392,-2.6952250186470588,4.569591953396863,17.332233464
7.85376225,-3.5041219411156863,-2.776877200454902,4.660586850769412,17.351412468509803
7.86378225,-3.574030093488235,-2.859660084731961,4.707774179181176,17.38649964219608
7.87380225,-3.6298223564294116,-2.9302445879711767,4.700495461950588,17.402884777941175
7.88382225,-3.666361114037255,-2.987954158657451,4.652875253264313,17.40567882545098
7.89384125,-3.6638512425666665,-3.0374923257162743,4.612385384427058,17.378508110529413
7.90386125,-3.5996329870960784,-3.069912923735883,4.688985642132941,17.300224043274508
7.91388125,-3.5043722477960784,-3.0985231148927452,4.847786205113334,17.217873916431373
7.92390025,-3.3995656767176468,-3.1316411653633334,4.939969738250588,17.20078974954902
7.93392025,-3.3939477636392157,-3.184752348088824,4.860619387407451,17.12887888745098
7.94394025,-3.560734155639216,-3.1799273633045098,4.556127764858431,16.813906458882354
7.95396025,-3.9197745562862747,-3.1101616737554907,4.03844117923098,16.215706805058822
7.96398025,-4.355861137854902,-2.9795325830692163,3.3490709865054895,15.443633408196078
7.97399925,-4.732595912364705,-2.7705993058535294,2.599601941878039,14.690334471333333
7.98401925,-4.948233979619607,-2.474595650559412,1.9113929717603921,14.150916911137257
7.99403925,-4.919506402756863,-2.1450620314025493,1.3943726821329412,13.969158859372548
8.00405825,-4.6429048064823535,-1.848615959794706,1.1116406470937252,14.152776397999999
8.01407825,-4.219159748050981,-1.612498673186863,1.0177367140545097,14.556598461529411
8.02409825,-3.7453729798156856,-1.4200459509907843,1.0134933896623528,15.029432588588234
8.03411825,-3.305101156207843,-1.263401428422157,1.0074801589564704,15.4569475362549
8.04413725,-2.9499284824039216,-1.1382554954025492,0.9513608417486272,15.75706642435294
8.05415725,-2.688740811482353,-1.0515136276515689,0.8681087470819607,15.922932707215686
8.06417725,-2.523267921935294,-1.017447886847647,0.786390388552549,15.99268493498039
8.07419725,-2.4348418325039214,-1.0151065814554903,0.7242021659643136,16.010036599313725
8.08421625,-2.364824142307843,-1.0267161020241178,0.6837617447956861,16.020934396745098
8.09423625,-2.3190185109745096,-1.0291187544554903,0.6824173208741176,15.993610165490194
8.10425625,-2.3000651168568624,-1.0336879693966667,0.7124291985407842,15.966228893882352
8.11427625,-2.2824331590921565,-1.0305086375927452,0.7562773884623528,15.929811693705881
8.12429525,-2.2778167708568624,-1.0141074327300001,0.785784685815294,15.90697734419608
8.13431525,-2.2598660481313724,-0.9977273695535294,0.7747668117564704,15.888874925960785
8.14433525,-2.224342928915686,-0.970769739122157,0.7201591144427449,15.85919855027451
8.15435525,-2.1637444038176468,-0.9337504206515688,0.6370776316329408,15.804523228705882
8.16437425,-2.0852875649941174,-0.9141182966515689,0.5538887198564705,15.736190721254902
8.17439425,-1.9810888749941176,-0.8969048676515688,0.4936208346713724,15.639238564196077
8.18441425,-1.8276500253862744,-0.8669128533182353,0.4593886646223527,15.489699962431374
8.19443425,-1.6241132867588235,-0.8317860033770589,0.45046094085764693,15.289546393999998
8.20445325,-1.3839440632294115,-0.7868383075927451,0.45316935968117633,15.05082469635294
8.21447325,-1.113045841170588,-0.7338688224162745,0.4484073528576469,14.780065355764705
8.22449325,-0.8426709791509802,-0.6872991606319608,0.43090512300666645,14.512165198117646
8.23451325,-0.5963633714843135,-0.6570057682005883,0.39122146911647043,14.273738035568629
8.24453225,-0.3790962125627449,-0.6454010859260786,0.32556599668509795,14.070249936352942
8.25455225,-0.17412570232745073,-0.6520208563378432,0.23461063107725474,13.88679105635294
8.26457225,0.03742934600588262,-0.669557504494706,0.1324145322341175,13.70546679390196
8.27459125,0.26538530686862777,-0.701269912984902,0.03593611601843122,13.523784493745097
8.28461125,0.5092814997901964,-0.7623473136515687,-0.044641909354117805,13.357699014705881
8.29463125,0.7613145978882356,-0.8580074005731373,-0.09055394856196095,13.222294959843138
8.30465125,1.0187211266333338,-0.9786346855927451,-0.10329381615803938,13.116037520588234
8.31467025,1.2927641647862746,-1.1151480701809804,-0.1095100943149021,13.034203962470587
8.32469025,1.598930028727451,-1.2534495676907842,-0.12355315723450996,12.972216055960784
8.33471025,1.9541698422372553,-1.380277062475098,-0.15400348435215702,12.931843990666668
8.34473025,2.343408669629412,-1.483308963475098,-0.20965909299921584,12.923729387333333
8.35474925,2.7509053247274515,-1.5602411524358826,-0.28098028807764724,12.956204942627451
8.36476925,3.1867380798254907,-1.6236721319221572,-0.34627376050901976,13.041959616176472
8.37478925,3.6374292403941184,-1.673902408684314,-0.36318521232862766,13.183420062117648
8.38480925,4.078607439864706,-1.7157337649352942,-0.3220654392823531,13.37158282490196
8.39482825,4.492401660805883,-1.7507696842156864,-0.2620753656352943,13.557469979156863
8.40484825,4.825981094629412,-1.7748149716725492,-0.22230379857843155,13.726719862784314
8.41486825,5.042571742139216,-1.803792676819608,-0.23902186664509822,13.859545902921568
8.42488825,5.147489605211765,-1.8468125341156862,-0.29331835163496095,13.894788798215686
8.43490725,5.147385834329413,-1.8955760088862745,-0.3422437219114315,13.852367153705883
8.444927583,5.0749692379156865,-1.9387861471862746,-0.3703810452996668,13.765358874372547
8.454947583,4.9416671097784315,-1.9705576311862747,-0.38807318066829427,13.673779585372548
8.464967583,4.740876384190196,-1.9927967592254903,-0.4177419070212355,13.569609623666668
8.474986583,4.437927451935295,-2.008237444264706,-0.47369019602123547,13.406486151058823
8.485006583,3.980953801935294,-2.049974826598039,-0.561133101942804,13.114621081235294
8.495026583,3.3311170010725495,-2.165543725480392,-0.6562932031977061,12.636274276980393
8.505046583,2.4950317178568633,-2.329685112264706,-0.7459873702565296,11.960245105470587
8.515065583,1.561149907013726,-2.466850232009804,-0.82214995670751,11.180910323745097
8.525085583,0.6348950092098045,-2.533676947578431,-0.8642480434526079,10.447723903784313
8.535105583,-0.19964323835882292,-2.5447684965588233,-0.8766123019820197,9.840587341568627
8.545124583,-0.8955474881431367,-2.504256074362745,-0.8720224985310395,9.401074901431372
8.555144583,-1.4412581159274505,-2.4094177964019607,-0.8419469550094707,9.142336870000001
8.565164583,-1.8488789957117642,-2.2700252715058826,-0.784482766734961,9.049007295941177
8.575184583,-2.1294855563784307,-2.0938785592117646,-0.7082636600682942,9.089632547490197
8.585203583,-2.29723115547647,-1.8843879104862744,-0.6255864928722158,9.202265594745098
8.595223583,-2.40044585075098,-1.6459399179764707,-0.5510469903035884,9.331295865392157
8.605243583,-2.4097080237705875,-1.3966747084666666,-0.49223496150162765,9.481248053470589
8.615263583,-2.322637777539215,-1.1180494710549018,-0.42647173693103935,9.58974744527451
8.625282583,-2.1867387977372545,-0.8215452712313726,-0.34931033998986294,9.669896737058824
8.635302583,-2.008767232509803,-0.519556744290196,-0.2574430007741766,9.71238930264706
8.645322583,-1.8205952339698035,-0.21648727338823534,-0.1538949826761374,9.715497172254901
8.655342583,-1.6361667948129406,0.07985102035686273,-0.034014057480058965,9.690702354019608
8.665361583,-1.4443618753031366,0.3703537297294117,0.08907141706896066,9.654263159705883
8.675381583,-1.2203465479188231,0.6597025828470588,0.20809543567680377,9.608957543235295
8.685401583,-0.9364175304874505,0.9485143520627451,0.3203047078924901,9.555437284411765
8.695420583,-0.5774164781541171,1.234815636435294,0.4255353970101371,9.538792669509805
8.705440583,-0.11090557246784258,1.5260507612392158,0.5109026502846469,9.621191814019609
8.715460583,0.5020636851792163,1.791696922552941,0.5614099904826861,9.83770646990196
8.725480583,1.2874036091988241,2.0103396274941177,0.5556146516787646,10.23027084735294
8.735499583,2.2409210581596084,2.2215305146705884,0.49386977416896066,10.80570484852941
8.745519583,3.3285342628458827,2.4448147909647058,0.41391503905131355,11.514393607156862
8.755539583,4.51270665568902,2.642704403317647,0.3733078461297449,12.306217305
8.765559583,5.706883451140001,2.7927055057882355,0.43265494961994105,13.120521319313726
8.775578583,6.84934600378706,2.898849640335294,0.5785618976003332,13.932498560196077
8.785598583,7.925546739198824,2.9678101424921564,0.743755324619941,14.73076095917647
8.795618583,8.895063775296862,2.99423951137451,0.8859123500317058,15.462125288411766
8.805638583,9.696878160728236,2.968665555747059,0.9733402910905292,16.061528153666668
8.815657583,10.288658885904706,2.8949573551980388,1.002472492412098,16.503248222333333
8.825677583,10.665015127751765,2.7867828910019607,0.9892516884513136,16.80610037554902
8.835697583,10.838248212634118,2.655647316727451,0.9492307304709214,17.009297129117645
8.845717583,10.830207603202744,2.5113957041196078,0.8951934691768038,17.142567631470587
8.855736583,10.676468332771371,2.353850045335294,0.8266711800199411,17.23154688147059
8.865756583,10.422157159418433,2.186253458511765,0.7548313827650391,17.285451969509804
8.875776583,10.0945793650851,2.0049177035509804,0.6924781139219017,17.29594070264706
8.885795583,9.712858922104706,1.7931302284529411,0.6274224655062155,17.277938774215684
8.895815583,9.293537236398825,1.5567406192764708,0.5631158253493528,17.24539360009804
8.905835583,8.873385303477255,1.3013446778509803,0.529514746147392,17.23240995519608
8.915855583,8.496321021124313,1.021910381170588,0.5394204339336666,17.27918803715686
8.925874583,8.184934854849804,0.7247249283568629,0.5840758119219018,17.408835654137256
8.935894583,7.937179407790981,0.41534648945686276,0.6419392360294116,17.628293598294118
8.945914583,7.725987207849804,0.08905103612941176,0.6942168035607843,17.930953625980393
8.955934583,7.523037793420393,-0.25996113735490195,0.7332141720470587,18.300630749960785
8.965953583,7.314145154341961,-0.6286660381,0.7545522269450979,18.68686269615686
8.975973583,7.100348031361569,-1.0090825577666664,0.7615215347490194,19.068897329725488
8.985993583,6.8828361147929416,-1.4031672078450979,0.7538049728431372,19.445037747039216
8.996013583,6.664904207734118,-1.8106317862568624,0.7178413376235293,19.812978611176472
9.006032583,6.446528588792941,-2.2208248447666663,0.6542020740156862,20.170560035235294
9.016052583,6.216050230832157,-2.6293455422960785,0.5888961762509802,20.526219045764705
9.026072583,5.968848067949804,-3.0499236684333333,0.5382710117960783,20.87651655180392
9.036091583,5.728721597714509,-3.4884093969431373,0.5043689213725489,21.199787129019608
9.046111583,5.500556856851765,-3.9330258278843138,0.48642902456862724,21.498963949666667
9.056131583,5.285357410949804,-4.376660947021569,0.48734437750980375,21.778396781568627
9.066151583,5.08546586108706,-4.813901849296078,0.5043030742549018,22.039139031039216
9.076170583,4.907460485185099,-5.241543687119608,0.528398005352941,22.276107235686275
9.086190583,4.746040931479216,-5.661277865080392,0.5499538948431371,22.486430078431372
9.096210583,4.589084614655687,-6.0768139372372545,0.5678330035294116,22.667383675098037
9.106230583,4.425492923400785,-6.494045197452941,0.5931820133333332,22.804567875882356
9.116249583,4.240218724655686,-6.910484285884313,0.6243646411588234,22.898241520980392
9.126269583,4.041803860365491,-7.319223852649019,0.6522398459019607,22.950825646862747
9.136289583,3.845039217916471,-7.71150923982549,0.6770734494509801,22.965170922941176
9.146309583,3.6557793850223534,-8.08002445711961,0.7055874969019605,22.954480321568628
9.156328583,3.48006477624706,-8.41761544782549,0.7389426376274508,22.94811836156863
9.166348583,3.313252839913726,-8.731179266256861,0.7718858993529409,22.959762001568627
9.176368583,3.145259479403922,-9.027643361041177,0.81904606972549,22.97738389019608
9.186387583,2.952448976411765,-9.308241024707844,0.8618546304313723,22.995297608823527
9.196407583,2.7173456657843142,-9.571140341845098,0.8840876074313724,23.000629579411765
9.206427583,2.410300770490197,-9.816413984080391,0.8913931301372549,22.95913838407843
9.216447583,2.00383460127451,-10.04721425417843,0.8892961208235292,22.800947434333338
9.226466583,1.4589687471764712,-10.2328258315,0.9018405910960783,22.49412817472549
9.236486583,0.7431335749607848,-10.366838046662743,0.9644310935078431,22.012030203333335
9.246506583,-0.14861250056862682,-10.489755147180393,1.0893853811549017,21.357337315843136
9.256526583,-1.1863947359999993,-10.61650777180392,1.2335950544294114,20.576514744627453
9.266545583,-2.3160343561372545,-10.706069622670586,1.3264676876450978,19.697875240764706
9.276565583,-3.435977573039215,-10.740112888970588,1.303496622927451,18.76776577237255
9.286585583,-4.464911274490196,-10.721647134007842,1.1724942792411763,17.805596917686273
9.296605583,-5.3486272885294115,-10.650605490298037,0.9953073358294117,16.929671909960785
9.306624583,-6.034647026568628,-10.519322729605882,0.8187530668686273,16.24175380701961
9.316644583,-6.467587186960784,-10.318972739327451,0.7091192351823528,15.786261151137253
9.326664583,-6.621388082450979,-10.040231709817645,0.7589631514294116,15.584246940352939
9.336683583,-6.4937521242156855,-9.700863452170587,0.9396037269784312,15.634341623882355
9.346703583,-6.0810400967647045,-9.346009847111764,1.130015209115686,15.900598165254904
9.356723583,-5.454634281431373,-9.019068333111765,1.3104873418607843,16.308988266235296
9.366743583,-4.7185460854509795,-8.719430871170589,1.493145673998039,16.760300683490197
9.376762583,-3.976409781705882,-8.420511192190196,1.6581550742529412,17.173253921137253
9.386782583,-3.276469416784313,-8.112309924072548,1.7948318197235291,17.52727548976471
9.396802583,-2.6303115579215683,-7.796758831994119,1.8891928645666665,17.80941861290196
9.406822583,-2.0457396698627446,-7.475259092268627,1.9302192656098038,18.007524202117647
9.416841583,-1.5688621322352936,-7.158466492935294,1.9118454767411763,18.078961902117648
9.426861583,-1.2104233185098032,-6.851876723209803,1.8470088867999999,18.01798979172549
9.436881583,-0.9075529339215681,-6.536164697935294,1.7647020317999997,17.885236851196076
9.446900875,-0.6462227056470584,-6.1985123286411765,1.6486261334666665,17.697133726411764
9.456920875,-0.4270169998431367,-5.849937151405882,1.4993097772117645,17.455744345509803
9.466940875,-0.22949405377254847,-5.488103421268629,1.3558664617999998,17.161435316588236
9.476960875,-0.04188639179215631,-5.1152610780137255,1.2221089416235291,16.8460366917451
9.486979875,0.14809102050196135,-4.737978170072549,1.1116188539960783,16.515834341862746
9.496999875,0.3435235297372554,-4.360351543170588,1.0360733609019608,16.168194539392157
9.507019875,0.5355115243843143,-3.9843220002509803,1.0024000972392155,15.816927342588235
9.517039875,0.7233077074039221,-3.614960891321569,1.008235624198039,15.469911866941176
9.527058875,0.9217235577176476,-3.2548197551490197,1.0277540972411763,15.119736008843137
9.537078875,1.1259860274823534,-2.8993941835647057,1.0503955022490195,14.77068938735294
9.547098875,1.3192404374235298,-2.5573368145196076,1.058310121380392,14.43563424007843
9.557117875,1.5085791274823535,-2.226782305935294,1.054070359772549,14.109762178372549
9.567137875,1.7001379938745105,-1.9105952259474508,1.039859857243137,13.788272620784314
9.577157875,1.9018024653843144,-1.6089693122317648,1.0101976889490194,13.462375622098039
9.587177875,2.1068469027960792,-1.3258240625101962,0.968913411360784,13.137973596352941
9.597196875,2.3112600242470593,-1.0609441960709804,0.9251382199098036,12.820894289490198
9.607216875,2.504817675364707,-0.8173956429160785,0.8871771328117645,12.523343920686274
9.617236875,2.685595170364706,-0.6056293552886274,0.8546185519725488,12.2520222557451
9.627256875,2.8544938862470595,-0.42360980858274505,0.8238379832803919,12.005741506745098
9.637275875,3.0110863456784323,-0.2697482109749019,0.8004944709862744,11.787324326647061
9.647295875,3.1611267592078436,-0.14125467821019602,0.7894390142215685,11.594584268784315
9.657315875,3.314450453129412,-0.030263587386666603,0.779223085790196,11.415906833784314
9.667334875,3.487146396696079,0.06919917317019615,0.7587473346921566,11.236165782235293
9.677354875,3.693357170186275,0.16517730849176473,0.7218936987901959,11.047375394039216
9.687374875,3.9180656791666673,0.2587468897121569,0.6669925744568626,10.866156522980392
9.697394875,4.153872570343138,0.3504504295043138,0.6047879166137253,10.69549212401961
9.707413875,4.392105207598039,0.4320479799866667,0.5464338623745096,10.53842616337255
9.717433875,4.618102626362745,0.4941661563611765,0.5022270260235292,10.39536336535294
9.727453875,4.810198840362745,0.5409395534945098,0.4822537169843135,10.277775900431372
9.737473875,4.977748557715687,0.5693955959905883,0.47425560879411754,10.180052447686275
9.747492875,5.133188714382354,0.584999481412157,0.46065844766470576,10.089976855156861
9.757512875,5.283499189009804,0.5971360768729412,0.4376387106098038,9.993636081901961
9.767532875,5.432678330594118,0.6116126850435295,0.41567443610392135,9.880558081411765
9.777551875,5.57269683432157,0.6307490253533334,0.40233462698627437,9.772146078411764
9.787571875,5.676130731390196,0.6522707974827453,0.3968235402470587,9.697981671960784
9.797591875,5.703123691609804,0.6645812988827453,0.4124579114431371,9.677504776137255
9.807611875,5.606722458627451,0.6691196468415688,0.46235297650588225,9.602223483568627
9.817630875,5.377654964941177,0.6759582607749021,0.5448836508823528,9.419171493352941
9.827650875,5.026871130843137,0.6907937174376472,0.6199117685882352,9.145456428215686
9.837670875,4.572602723980393,0.6926357451435297,0.5975144160588234,8.784348087588235
9.847690875,4.0098052021960795,0.6813360983592158,0.4937096507450979,8.315808320509804
9.857709875,3.314261370156863,0.6820457955552942,0.4067288955686273,7.735449507549019
9.867729875,2.5343707529411774,0.7169485710062746,0.33337663572549003,7.070191176862745
9.877749875,1.7421095256274515,0.7768620346533334,0.25291081384705866,6.3940812461372545
9.887768875,1.0068880817843144,0.8284786002415687,0.17819826233921554,5.778180479078432
9.897788875,0.33814913603921626,0.8653238092807845,0.11663499244901945,5.239235826176471
9.907808875,-0.26674700862745043,0.9008930641435295,0.08278898369999986,4.777277445196078
9.917828875,-0.8026162566078426,0.9357814050062746,0.08750870140196063,4.406523016176471
9.927847875,-1.2252451847647055,0.9828700931827452,0.14102590445294103,4.168255550823529
9.937867875,-1.5286803873725483,1.0556467347709804,0.22592123584509788,4.059085590098039
9.947887875,-1.7628817936470584,1.1251894046141178,0.3090813916490195,3.9993376053137255
9.957907875,-1.9264145426470582,1.170965358476863,0.4056858153745097,3.9565107360392155
9.967926875,-2.009051028686274,1.2258045682611765,0.5199413722960782,3.935127179254902
9.977946875,-2.025829040745098,1.294766899084706,0.6190467017470587,3.9355416749411765
9.987966875,-1.9948940023823525,1.3663436604768628,0.7087790362176469,3.925190684980392
9.997985875,-1.941651423558823,1.432371666457255,0.7877401803431371,3.903576358509804
10.00800587,-1.8838917330686271,1.4983869346729415,0.8851890279901959,3.8909488482941175
10.01802587,-1.910883334323529,1.6059028630082353,0.9492792985392156,3.979833049607843
10.02804588,-2.1261282722450976,1.7906259030984315,1.001028653835294,4.308332072901961
10.03806487,-2.644838224519608,2.086133807318039,1.0997041700666665,4.846691021588235
10.04808487,-3.3147717246764703,2.3744494824003923,1.1934167134941176,5.549930580137255
10.05810487,-4.007461063833333,2.673006017865098,1.275530629217647,6.297309894078432
10.06812388,-4.42788955977451,2.868756504967059,1.3081900826686272,6.756779481274509
10.07814387,-4.737918131852941,2.950368895155686,1.354998168335294,7.059027975137255
10.08816387,-4.8683512235588235,2.957682981020392,1.433291081962745,7.211521618725491
10.09818387,-4.893293580009804,2.923908701730196,1.5019238886098039,7.274690765470588
10.10820288,-4.861402305735294,2.865798569467451,1.5298977895901962,7.29868020017647
10.11822287,-4.7884885112823525,2.796403497587059,1.5170930645411762,7.31344553327451
10.12824287,-4.693751292772548,2.698246818979216,1.4577607813215687,7.349053902705883
10.13826287,-4.587396246929412,2.629774142351765,1.357350303660784,7.429173888019608
10.14828188,-4.463457849968627,2.5655691771360782,1.204115458582353,7.546630870392157
10.15830187,-4.3289350628313725,2.485053304626275,1.0387509352294118,7.720456218058823
10.16832187,-4.203114023517647,2.3954874284105885,0.8579927463666666,7.886637372470589
10.17834088,-4.086462687221569,2.223134213579216,0.6844571982686274,8.099767445
10.18836088,-3.9998015679470584,2.0752240525909804,0.5200840455823528,8.287416615941178
10.19838087,-3.9080727968098037,1.90309895117451,0.3654229808764704,8.522181501117647
10.20840087,-3.7873832283784306,1.6990006219509803,0.2510353903470587,8.74080455909804
10.21841988,-3.663561030162745,1.4492002630372551,0.14388325731176455,8.988550167588235
10.22843988,-3.4951451787117644,1.2078879946431373,0.040174720623529246,9.250261547411764
10.23845987,-3.29974598192745,0.9436400306862744,-0.08476742061176487,9.59148837737255
10.24847887,-3.105018402829411,0.7047386786490195,-0.2232911863823531,9.900899275019608
10.25849888,-2.893421526496078,0.45498956048823525,-0.35995280515490213,10.242618732078432
10.26851888,-2.6905076814764697,0.09112523476078431,-0.5366595620803923,10.586411894980392
10.27853887,-2.4670563382176467,-0.14722421580588238,-0.8200747264960787,10.964312523156863
10.28855787,-2.2616767827882347,-0.44740877458235295,-1.0037147765941177,11.309018011588234
10.29857788,-2.0489609268764704,-0.7179689297647059,-1.1608915087450982,11.668699144078433
10.30859788,-1.8391113201549014,-1.0228688390666667,-1.3019248930196081,12.016016989294119
10.31861687,-1.6251788411725487,-1.288143716107843,-1.453712455709804,12.318251071156862
10.32863688,-1.3802156072901957,-1.5370533522039216,-1.6815154488509807,12.650829024509806
10.33865688,-1.0761545835843134,-1.8384122274392156,-1.8758989330470592,13.01371873062745
10.34867688,-0.8128503892705877,-2.145998357792157,-2.0735128438705885,13.30948490164706
10.35869587,-0.5226991096431368,-2.4439700680666667,-2.3193832097333336,13.633530887156862
10.36871588,-0.1241072970156858,-2.7331584111058826,-2.5567406976156866,13.981625704431371
10.37873588,0.18554602431764752,-3.0349457366352945,-2.813787613184314,14.299067258843138
10.38875587,0.437257190258824,-3.342989394576471,-3.0497056562862745,14.642998851137254
10.39877487,0.6633765772392162,-3.6110082081450976,-3.285901702131373,14.903395574470588
10.40879488,0.8641858228470592,-3.8772576775568623,-3.5206415071431376,15.1688873587451
10.41881488,1.050292471141177,-4.219998071164706,-3.723206106590196,15.428902764823528
10.42883387,1.2780950588078435,-4.473919090988235,-3.948573742531372,15.668297235411766
10.43885387,1.4328963276313729,-4.702083179047059,-4.129697618903921,15.762779932529412
10.44887633,1.5331715503372554,-4.882646586164706,-4.254771606766667,15.752076302607843
10.45889633,1.5872250334254907,-5.031929493341177,-4.3246281785313725,15.690941206647059
10.46891533,1.6296833087254905,-5.141350105184314,-4.329652935845098,15.629129083156865
10.47893533,1.687615950313726,-5.218012322996079,-4.26929685037451,15.619404280294118
10.48895533,1.7788596581254905,-5.272907575545098,-4.146715891354902,15.718268078901962
10.49897433,1.857204615194118,-5.30065201352549,-3.9281621330215684,15.856506580960785
10.50899433,1.880988113776471,-5.334258588996079,-3.644251691029412,16.018189875156864
10.51901433,1.8356553201686279,-5.3781961895843144,-3.3846381080294123,16.263356042941176
10.52903433,1.8448948941490197,-5.473385883937255,-3.066903713264706,16.41087143117647
10.53905333,2.0282340376784322,-5.661602353060784,-2.721012364656863,16.362380804313727
10.54907333,2.4897579939921575,-5.984804703703922,-2.3730244122254907,16.199363281568626
10.55909333,3.147600849639216,-6.307459122217647,-2.0045954294215687,15.844724396862745
10.56911233,3.9109073664823533,-6.652099939727451,-1.7111883082058825,15.367845333725489
10.57913233,4.4539524931078445,-6.902130622943137,-1.3227841576764705,15.197019153529412
10.58915233,4.905607847186275,-7.0250342137274515,-1.0072398960294118,15.15650183647059
10.59917233,5.152847877821569,-7.054458754719608,-0.7388974503431374,15.26030527882353
10.60919133,5.268063681074509,-7.03246179852353,-0.4726979061666667,15.444873569392158
10.61921133,5.280361139564706,-6.976462735601961,-0.20004275540196081,15.670475271549021
10.62923133,5.207206699719608,-6.8952163430568625,0.04457764225490191,15.816690921176471
10.63925033,5.073842980013726,-6.755895480919609,0.2852433004509804,15.953484326882352
10.64927033,4.927410078954902,-6.613629462096078,0.502435094627451,16.008234518254902
10.65929033,4.780157536288235,-6.468362323703922,0.7164812519215686,15.952495688019606
10.66931033,4.644890455700001,-6.308945399233335,0.8792487067450981,15.787912044705884
10.67932933,4.524897555460785,-6.1517268914490195,1.0121532394019608,15.631017375764705
10.68934933,4.411682093094707,-5.917377697939216,1.0841070678137255,15.434761226215686
10.69936933,4.315473366765295,-5.7234654606647055,1.159214999990196,15.286388391980392
10.70938833,4.197153267508432,-5.5105924159980395,1.2226129938333332,15.092480400941175
10.71940833,4.034453228961373,-5.285280687880392,1.2272404047941177,14.91193133945098
10.72942833,3.8566943057476477,-5.020764118174511,1.223128587264706,14.704166126980391
10.73944833,3.635947445222157,-4.764651845272549,1.2068866184607843,14.488803830705882
10.74946733,3.400599294521569,-4.4908547028196075,1.2079392769117647,14.200968019588236
10.75948733,3.1795084038333337,-4.255160131435294,1.2355806853431373,13.961618166294118
10.76950733,2.9575297094803923,-4.018243229535294,1.2789158843039217,13.686403554803922
10.77952633,2.7568608164215687,-3.673141225937255,1.3744932178921567,13.400203207882353
10.78954633,2.5580367868725493,-3.4547538808862743,1.5863948896372546,13.066314898078431
10.79956633,2.3620242032450984,-3.1735779158117645,1.7108840844215685,12.752122038431374
10.80958633,2.137500068541177,-2.9156713008607844,1.821732629852941,12.424965517490197
10.81960533,1.9059739894627457,-2.623369050445098,1.9244655749705881,12.11169729835294
10.82962533,1.6796462299529418,-2.3660080755686277,2.0286602086960785,11.84430721245098
10.83964533,1.4299926830901966,-2.121936944029412,2.2003457481862743,11.534297329607844
10.84966433,1.1311828360313732,-1.8342836320235296,2.3344819058921567,11.1676034017451
10.85968433,0.8855459428156869,-1.5526793750509802,2.4784128886960786,10.843364467960784
10.86970433,0.6353091440098043,-1.3054362534843134,2.6773413316862746,10.471653191019609
10.87972433,0.29798810051176516,-1.086069640837255,2.8780180946333336,10.06884172962745
10.88974333,0.052339078721569135,-0.8689718475235293,3.1128892745647057,9.707320072313724
10.89976333,-0.1358584750235289,-0.6507310323862744,3.3342087803137255,9.315114735764706
10.90978333,-0.3055008772980387,-0.4774646538607843,3.5481527947058824,9.005295643058822
10.91980233,-0.45020937699803876,-0.3046817058294117,3.732392653372549,8.701232817098038
10.92982233,-0.5877217844333329,-0.048874676778431304,3.872804071176471,8.397679848470588
10.93984233,-0.7737676555176465,0.12236114642941183,4.029965258333333,8.09941285045098
10.94986233,-0.8782865157254897,0.26811110521372555,4.141367336784314,7.922900156705881
10.95988133,-0.9162833960196073,0.3553673720352942,4.18491071290196,7.833662635666667
10.96990133,-0.8999457529294113,0.40238451269019615,4.170720357862745,7.815360930647059
10.97992133,-0.8838978596411761,0.4140970904843138,4.095613677450981,7.81911058062745
10.98994033,-0.8953259117784308,0.3856085429117648,3.9609576883333335,7.791898630882353
10.99996033,-0.9509569007784309,0.3370701682568628,3.7605940009607846,7.671604853509804
11.00998033,-1.0048446788529406,0.26507015668039224,3.4559287563529413,7.5388966092352945
11.02000033,-1.017526564858823,0.21773794591764714,3.0749513693529416,7.403967885725491
11.03001933,-0.9661169752705878,0.20386394805490204,2.659958198490196,7.178018937705883
11.04003933,-0.876316519231372,0.20953823880000005,2.227819910470588,6.9197181490588235
11.05005933,-0.7625531383294114,0.2296267065117648,1.799055800372549,6.585018962882352
11.06007833,-0.6024033867117642,0.2597758167588236,1.349944889882353,6.114908212156863
11.07009833,-0.458206950113725,0.28169679756470595,0.9162621551372548,5.689581675901961
11.08011833,-0.3784132146039211,0.3192780392286275,0.6012987942549018,5.382080366117647
11.09013833,-0.365235079631372,0.38715820766980397,0.3347446965294117,5.078531664078432
11.10015733,-0.43121517404313675,0.47118212298352946,0.12599716119607832,4.882117724117647
11.11017733,-0.5528122048156857,0.5537878555129412,0.21148653001960774,4.872433994901961
11.12019733,-0.6996178706372543,0.6521234479443139,0.2833021582549018,5.007054232941177
11.13021633,-0.8407295665980385,0.7393332379050981,0.4859372249215685,5.272172957058824
11.14023633,-0.9358607821666661,0.8092864050658823,0.8587490411960783,5.598120634117647
11.15025633,-1.016466787558823,0.8661053005364706,1.3025663572745094,5.985925374313725
11.16027533,-1.15092261567647,0.9154356297717647,1.8459388675686272,6.426001589764706
11.17029533,-1.2806106648921565,1.0277867735560786,2.3527143004117645,6.883475867333333
11.18031533,-1.389222840656862,1.1191317435560784,2.8216537748039214,7.369853519666667
11.19033533,-1.4765322730254895,1.2170999549482353,3.255513822166666,7.7904795537058815
11.20035433,-1.5131991386986268,1.3261355182815686,3.619263803970588,8.073614745019608
11.21037433,-1.5175002030064701,1.4527426297325492,3.853522901186274,8.238099841607843
11.22039433,-1.5146742476201955,1.5534953545952943,4.02951282967647,8.318013599882352
11.23041333,-1.510233304643725,1.6234365659090195,4.17795550367647,8.352702354588235
11.24043333,-1.5005159363299994,1.6624705390070589,4.286885802592156,8.312231977450981
11.25045333,-1.4803140409456856,1.648704789861961,4.357844440180393,8.247943033686274
11.26047333,-1.45033986395098,1.58967710413451,4.389452844709803,8.227351962156863
11.27049233,-1.4095280302431368,1.5058963881227454,4.37382327265098,8.252642698784314
11.28051233,-1.3802478565960778,1.3902017812031373,4.326586323513725,8.391755948117648
11.29053233,-1.3458154677921566,1.2336723317031373,4.2341510196705885,8.543641076607843
11.30055133,-1.312207410596078,1.0671457155933333,4.083270419886275,8.736719572882352
11.31057133,-1.2500491558901956,0.8382968044403921,3.9119513548862743,9.022814644294117
11.32059133,-1.1476317868333328,0.5864969571364705,3.7429295746901956,9.331508442294117
11.33061133,-1.0038267028725485,0.32590780926980395,3.5747411468666663,9.667794391039216
11.34063033,-0.830003008931372,0.02431969223647063,3.3937360672,10.003092207333333
11.35065033,-0.656440577068627,-0.29810440145960776,3.260093054847059,10.357771642529412
11.36067033,-0.4824697163823524,-0.6565727052301961,3.126897409788235,10.688505252352943
11.37068933,-0.3137415042450975,-0.9680893122027451,2.9696371133372543,11.041101888294119
11.38070933,-0.16533834747843082,-1.3033909682792157,2.835486668405882,11.376298149352943
11.39072933,-0.0015525295686269044,-1.7563075687694116,2.6826361735372544,11.75763324172549
11.40074933,0.1071466401431378,-2.0653790195341175,2.5304158718019605,12.145398433745097
11.41076833,0.19999955098627506,-2.3375283966321567,2.389533369013725,12.470431334607843
11.42078833,0.3078458559666672,-2.6276753167458824,2.2942015886803917,12.771894710058824
11.43080833,0.42128608050980443,-2.92277496409098,2.236307529798039,13.037527206215685
11.44082733,0.5463109180431378,-3.243571717651765,2.184266903798039,13.300225616019606
11.45084488,0.6941421505000005,-3.520893331428235,2.0485498227392154,13.588232530313725
11.46086487,0.8416736264921574,-3.833882608094902,1.979260678817647,13.895595046019608
11.47088487,1.0110133716294123,-4.112396188720393,1.9233106794843133,14.205256235745098
11.48090388,1.1620643722745103,-4.378298530845882,1.886130496190196,14.475440970862746
11.49092388,1.3132885319607848,-4.599922889561569,1.8631474063078428,14.715822291372548
11.50094387,1.4482407782156868,-4.814761781000785,1.8579451487392156,14.989966745196076
11.51096287,1.5902821409803929,-5.017511089267451,1.8853145487392156,15.228267742294117
11.52098288,1.7447081933882358,-5.243076190828235,1.9444220801117647,15.393636702843137
11.53100288,1.9257082375372552,-5.484065609496864,2.018417608405882,15.558703880078433
11.54102187,2.1371580190078436,-5.710235711065491,2.106297161307843,15.71355349947059
11.55104187,2.316331348870589,-5.917365194300785,2.1627460439745096,15.83508689007843
11.56106188,2.494251107086275,-6.115736952496863,2.171084321405882,16.00037717135294
11.57108188,2.651110082880393,-6.290265764610588,2.136009122915686,16.20237963247059
11.58110087,2.7834328306941183,-6.4436724709027455,2.053344233680392,16.360804079705883
11.59112087,2.8962673966745105,-6.587294807743137,1.9386595431313725,16.464489946490197
11.60114088,3.0320740421745103,-6.7231373268509795,1.7199081836019607,16.514871768431373
11.61115987,3.2118111749000007,-6.839119254909804,1.4998132961117643,16.486177221529413
11.62117987,3.4597583056058827,-6.945119258066667,1.019620008288235,16.250968362196076
11.63119987,3.745097734370589,-7.022094195133922,0.588877919498039,15.89911561480392
11.64121988,4.025686481350981,-7.0350568186045095,0.07650195803529396,15.406709417666667
11.65123887,4.255804889880393,-6.983193382545686,-0.503773494219608,14.989947131431373
11.66125887,4.415695217919608,-6.8689937347221575,-1.0536902932784316,14.574717826137254
11.67127887,4.375909694194118,-6.740948702075098,-1.568157809690196,14.301972629666666
11.68129788,4.247504319292157,-6.6180431277221565,-1.9197575502784312,14.16782050790196
11.69131787,3.9037662554882355,-6.4158435735064705,-2.1484364679254906,14.292844072019607
11.70133787,3.3552819945862744,-6.188784826859411,-2.215711397337255,14.549397845156863
11.71135787,2.6176052212529415,-6.000868055388824,-2.1726579334156866,15.12306733182353
11.72137688,1.8829985127725497,-5.8519705641339215,-1.9732618586313724,15.705866672803923
11.73139687,1.2926952659568633,-5.780094709271177,-1.7503655852980393,16.32710827164706
11.74141687,0.8248614034098044,-5.693131121094706,-1.4350104086509805,16.847093694509805
11.75143588,0.512429530741177,-5.6267443371535295,-1.062629894311765,17.327216410588235
11.76145588,0.2381707125490201,-5.5242536044790205,-0.7385915055274509,17.780431881607843
11.77147587,-0.07129719668627402,-5.402624994537843,-0.43780001719411765,17.984771950137254
11.78149487,-0.2826237538039211,-5.263607700086863,-0.21426762464509813,18.034997986705882
11.79151488,-0.4265151150392152,-5.100580942086862,-0.06466212831176478,17.90351276315686
11.80153488,-0.5309570347450975,-4.9066906091652935,0.026371285609803837,17.738103710705882
11.81155487,-0.6001355675803917,-4.714651867763333,0.11062742619803914,17.609548376235292
11.82157387,-0.6590119629137251,-4.4895825719986275,0.17599009635490184,17.43631163705882
11.83159388,-0.7165466569725485,-4.269616954410392,0.1942576624333332,17.263357686294118
11.84161388,-0.7870989949529407,-4.054969698214314,0.20929576968823518,17.08405710139216
11.85163287,-0.8605335678156858,-3.8252156622143136,0.26164275823725475,16.912361475313727
11.86165287,-0.9181501953450976,-3.5969114366260784,0.28558679557058814,16.722885379235294
11.87167288,-0.9714588873058818,-3.344328464547647,0.297735082217647,16.550959735509803
11.88169288,-1.025604733286274,-3.1699489978221567,0.33150071435490186,16.41660373354902
11.89171187,-1.0547796765803916,-2.9652236589398036,0.34886744290392147,16.276369001392155
11.90173188,-1.1283156963647054,-2.6473420730182355,0.3771417152568626,16.065666382098037
11.91175188,-1.1751559815019603,-2.46894256443,0.40983606966862735,15.86140343327451
11.92177087,-1.2291744680509797,-2.337963768567255,0.4822310879823528,15.69790758037255
11.93179087,-1.3085586083647056,-2.1827405697045097,0.562789190707843,15.52579351480392
11.94181088,-1.395601723031372,-2.01348245115549,0.6687498518392155,15.331389714647061
11.95182988,-1.4904248581686268,-1.8023407577437254,0.8078165244274509,15.139987981078432
11.96184987,-1.6029831404627446,-1.6166243493907844,1.0548919081921568,14.896858050313725
11.97186987,-1.7478175411509798,-1.3643571702731372,1.2363399596235292,14.640924208490196
11.98188988,-1.9528797111705878,-1.1077641717064706,1.4096867019764705,14.38209583660784
11.99190888,-2.168462241131372,-0.8183237173731372,1.5544169499176468,14.168623627490197
12.00192887,-2.3858541568960776,-0.538307702784902,1.677081763152941,13.97680188109804
12.01194887,-2.568369511994117,-0.23736091731431372,1.7849574130941175,13.738822634803924
12.02196788,-2.73145963547647,0.050762022019019616,1.8661411658588232,13.518798171039215
12.03198788,-2.861787812084313,0.36676997419549023,1.9238556278588235,13.342773165607843
12.04200787,-2.971615206731372,0.6936103767837255,1.964040303515686,13.16548651827451
12.05202688,-3.040483804378431,0.9705314780386274,1.9898788400098038,13.02632085572549
12.06204688,-3.0389404318098037,1.2206397095680392,2.0002733544607842,12.960309917666669
12.07206688,-3.034353767358823,1.475507748352353,1.9951345703039214,12.91470944662745
12.08208687,-3.025826986496078,1.7207472464896079,1.9745947736176468,12.877758723666666
12.09210588,-3.0237571317509797,1.9544898313523529,1.9415335305392154,12.853851930509805
12.10212588,-3.0419657954176467,2.2110423826464705,1.8967118841666666,12.84850776607843
12.11214587,-3.079369896437255,2.4348547474503923,1.8501992900490194,12.881781585980391
12.12216487,-3.1127907196921565,2.627594764724902,1.7839142586568624,12.909102123823528
12.13218488,-3.1601973311235287,2.782199118117059,1.7221074250490196,12.989878291980393
12.14220488,-3.199637461496078,2.9055250779294117,1.6228224560745097,13.013658188529412
12.15222487,-3.224748108947058,2.966642075145098,1.5577082922823529,13.040154552529414
12.16224387,-3.2150279615156854,2.9689052565960785,1.4719869834392154,13.036104986333333
12.17226388,-3.1453916655352936,2.8955071840666666,1.345617125262745,12.951352428509804
12.18228388,-2.848973593633333,2.7820382206941177,1.1547412543019606,12.724512325666666
12.19230287,-2.494039438515686,2.608512170772549,0.891039988007843,12.391008635686276
12.20232287,-1.9877252271333328,2.3838086884,0.6096699338156861,11.820406614392157
12.21234288,-1.3323710997960776,2.1076818971058824,0.2767188364627449,11.18362176790196
12.22236187,-0.5548673567274504,1.8526577151254904,-0.004131209890196206,10.379206429686274
12.23238187,0.15933449319803983,1.6348765658117645,-0.2596149051058825,9.734643131980391
12.24240187,0.6662733526294125,1.5434030168509802,-0.3577451872627452,9.250741577078431
12.25242188,0.9347131954529416,1.4939662003019607,-0.38343566549803926,9.013389796686274
12.26244087,0.8526896080019615,1.544496787007843,-0.29167551177254913,9.10999045962745
12.27246087,0.44049925623725567,1.6445145035176467,0.0066720013647057624,9.475505854921568
12.28248087,-0.010866994547058223,1.7916027260666667,0.32098399469803907,10.291183871588235
12.29249988,-0.6459032075078426,1.955946325654902,0.7634446307960783,10.986743244627451
12.30251987,-1.2829815522333325,2.065498163184314,1.2300255989529412,11.717658598764706
12.31253987,-1.9568158378803917,2.1277573632823525,1.6962938761686275,12.494450099058824
12.32255888,-2.54600861720196,2.1388885528803923,2.3147614026392156,13.038397718039217
12.33257888,-3.001650067849019,2.122570700782353,2.7847320336588233,13.489221041725491
12.34259887,-3.370158718143137,2.0838139618803924,3.2106899226784313,13.718759361509806
12.35261887,-3.641988541123529,2.016164812527451,3.5683776235411764,13.872808518568629
12.36263788,-3.8245833467313717,1.9552076079,3.8200238142470586,13.82472938280392
12.37265788,-3.95432450202549,1.9271290326647057,3.9665872011901957,13.714520318039217
12.38267787,-4.05556072487843,1.920612040017647,4.0326595257980395,13.66049051017647
12.39269687,-4.144746800645097,1.9247627019196079,4.024424020601961,13.631641949588236
12.40271688,-4.240432649272548,1.91335190262549,3.96692844487647,13.669771023901962
12.41273688,-4.310826156429411,1.9059230918019607,3.8668516397392154,13.737039565941178
12.42275587,-4.351961232311764,1.8907162262137256,3.7526076687,13.802487704176471
12.43277587,-4.368436131703921,1.8561807372137258,3.5709123115431374,13.933842383156861
12.44279588,-4.348034668507843,1.797950455017647,3.3038674227980387,14.158432724803921
12.45281546,-4.308400415233333,1.708025168037255,2.998885893058824,14.428848205745096
12.46283446,-4.241142393056863,1.5548176403117646,2.484916514352941,14.699295951078431
12.47285446,-4.140057017292156,1.3682638776450982,2.114734610568627,14.996227953607844
12.48287446,-4.000704184898039,1.1300981204882352,1.723299832215686,15.32908397935294
12.49289346,-3.794515747368627,0.895964511137255,1.3261890292941174,15.69092942554902
12.50291346,-3.56911584897647,0.4975284966078432,0.9486815229803921,15.985897226235293
12.51293346,-3.3691681482509797,0.2024561233921569,0.6303149058431371,16.318467560862747
12.52295246,-3.1860890201333327,-0.15828844345098037,0.3471280103725489,16.592913895588236
12.53297246,-3.0529238013568616,-0.4977376753333333,0.07517584784313716,16.90940617719608
12.54299246,-2.953452048180391,-0.8173749765294118,-0.17707548798039224,17.166672980666668
12.55301246,-2.9084797486705876,-1.1258553238235294,-0.3768501722450981,17.41182309682353
12.56303146,-2.919347724239215,-1.4094480637058822,-0.5569735458764706,17.564345112117646
12.57305146,-2.972823897219607,-1.6643630794901962,-0.7331558083078432,17.694936076647057
12.58307146,-3.0228033656901956,-1.9209888156862747,-0.8672620389156864,17.757698436117646
12.59309046,-3.0754137248274502,-2.1776498711960786,-1.0101784983470588,17.822153327313725
12.60311046,-3.10248165482745,-2.393806749745098,-1.140275261092157,17.8972675467451
12.61313046,-3.1096113229450975,-2.6522700082156865,-1.251349819092157,18.00352809790196
12.62314946,-3.0574870025333323,-2.88669609227451,-1.37686679497451,18.10595349790196
12.63316946,-2.9920947058078426,-3.113668905823529,-1.4537280779745099,18.202914677901962
12.64318946,-2.9282044191803918,-3.3206862355882354,-1.5375371537,18.26340963809804
12.65320846,-2.8660971204941164,-3.531804259745098,-1.604360276837255,18.358668922666666
12.66322846,-2.7851382279843135,-3.722761802862745,-1.6731519378960784,18.439883797764704
12.67324846,-2.7394460506509795,-3.8913002530392156,-1.7227411713470588,18.468393667529412
12.68326846,-2.695119435709803,-4.044836066372549,-1.7610510203666667,18.452374649980392
12.69328746,-2.6480355275333327,-4.185889707392157,-1.7849285121117646,18.414227206784314
12.70330746,-2.6204797576117644,-4.312436736852941,-1.8162724051313726,18.384128368392158
12.71332746,-2.5854007930921563,-4.434209457682353,-1.8607418199392158,18.358531641607843
12.72334646,-2.5491575445274504,-4.516367477180392,-1.931911384056863,18.325886953568627
12.73336646,-2.516506941439215,-4.583715185552941,-2.006864842770588,18.26118855629412
12.74338646,-2.440030827011764,-4.651125593827452,-2.084662549084314,18.167658624784313
12.75340546,-2.2471294986588233,-4.721941385239216,-2.2173754734960784,18.047576636490195
12.76342546,-1.9040710559137248,-4.7803491133960785,-2.4387626934960784,17.886690743156862
12.77344546,-1.365154912266666,-4.8760255868078435,-2.74103717657451,17.50677403237255
12.78346546,-0.5997740256784306,-4.991955664768628,-3.042939459319608,16.927226696882354
12.79348446,0.1142709294490203,-5.172709758827452,-3.2536721918686276,16.13254530609804
12.80350446,0.8358715393313733,-5.3926967394254905,-3.4501345408882353,15.603432611392156
12.81352446,1.4519514893117653,-5.56712219442549,-3.545577828731373,15.160838025705884
12.82354346,2.031169235194118,-5.718748222798039,-3.49953761657451,14.7396784937451
12.83356346,2.516580951664707,-5.814796238621569,-3.62059835912353,14.453107089431374
12.84358346,2.876617436841177,-5.827350898817647,-3.5447590210843143,14.216628402372548
12.85360246,3.1470360645078435,-5.778994180431372,-3.423935793437255,14.189121742960783
12.86362246,3.327215333880393,-5.665810031474511,-3.3105837543000005,14.092599098843136
12.87364246,3.4067467159392164,-5.516124573827451,-3.131970123358824,14.168631043039216
12.88366246,3.416962167703922,-5.363800958317647,-2.9292526852431378,14.243866150607843
12.89368146,3.3768203746549026,-5.210786636749019,-2.713858150596079,14.249682083588237
12.90370146,3.292683388264707,-5.012200450533333,-2.430770701831373,14.161043860509801
12.91372146,3.1691032633039224,-4.784940304984314,-2.2147062814784317,14.035589990843137
12.92374046,3.0191613602450986,-4.550556296729412,-2.012230048850981,13.898951068784314
12.93376046,2.8766315287156874,-4.3234911078666665,-1.8444841027333336,13.737531908980392
12.94378046,2.770768672931373,-4.081102857121569,-1.6525538671843139,13.507636286803923
12.95379946,2.6860674649549026,-3.8475588743764706,-1.4035676022823533,13.17541493282353
12.96381946,2.6214476043294126,-3.6172750110098035,-1.1358543847529414,12.818729450431373
12.97383946,2.557502422309805,-3.3591479096727452,-0.6697430345372551,12.463491766882353
12.98385846,2.492998634505883,-3.0900944719784316,-0.3791206580372551,12.112040969686273
12.99387846,2.397103645505883,-2.8031024476705886,-0.09003551015490216,11.72110957419608
13.00389846,2.25909767617255,-2.5493544564607844,0.18115107923725468,11.320929244352941
13.01391846,2.1013799915843143,-2.1608142690490197,0.41907306221764684,10.98131431280392
13.02393746,1.9570587449019614,-1.9032686840313726,0.6167509131392155,10.624598626627453
13.03395746,1.8157024713568632,-1.602779532090196,0.7706478445901959,10.343020287176468
13.04397746,1.708327021415687,-1.3318942778019607,0.9262806346098037,10.040164261784314
13.05399646,1.604382568003922,-1.0860636473901961,1.0732580742372548,9.786655662235294
13.06401646,1.5243796526901967,-0.8587624680078434,1.2002585292176466,9.503830264352942
13.07403646,1.4487305273176478,-0.6418304316039216,1.3510416114725488,9.259368445235294
13.08405546,1.3719255489352948,-0.4536577157019609,1.5428992561745096,8.986562286668628
13.09407546,1.2722180537843144,-0.2730298510431373,1.735590250580392,8.757871785747058
13.10409546,1.1605061345196084,-0.08967273407647065,1.9587195922098035,8.532199086629412
13.11411546,1.0279634703529419,0.05506360256078425,2.1737322690549017,8.301933184570588
13.12413446,0.9106897418588241,0.2085972965274509,2.3638128577668627,8.017348488341176
13.13415446,0.7562511521529419,0.3431864537960784,2.5675355692001958,7.728133022031373
13.14417446,0.600358623978432,0.45219047637647053,2.7318166205707843,7.4617212969725495
13.15419346,0.468941327788236,0.5562697269509803,2.8740296723943133,7.225276446384314
13.16421346,0.3356731948470595,0.6454449407541176,3.0054145528452936,7.0157570842274515
13.17423346,0.2038197444549026,0.7207802189482352,3.0917533684139213,6.8382710540705895
13.18425246,0.11030138838627516,0.7724506946384313,3.149190577198235,6.699634470894118
13.19427246,0.03281367084117713,0.8153691642933333,3.187940004492353,6.615836779796077
13.20429246,-0.033509905023528755,0.8535367115894117,3.207112327276666,6.554643550815686
13.21431146,-0.07087738221176403,0.878117366022745,3.2129840383943136,6.532467241658824
13.22433146,-0.09477618972156797,0.8877562970756862,3.212570754649215,6.5194851726980385
13.23435146,-0.09533289497646992,0.8728832133717646,3.1948152301394113,6.526665219952941
13.24437146,-0.0805552810549013,0.8466043019835294,3.1375946900884317,6.573264318580392
13.25439046,-0.0950675161921562,0.8096259125443137,3.0134677164609798,6.580338007639215
13.26441046,-0.17910699411372483,0.7514569499619608,2.822298433931569,6.4935849174823534
13.27443046,-0.30099979152548956,0.6671181490129411,2.6092142174609796,6.342364819247059
13.28444946,-0.4344701848274503,0.5750967357247059,2.338735200068823,6.181061195619607
13.29446946,-0.5230163855509797,0.4862978340756862,1.946589490323725,6.012013387874511
13.30448946,-0.504764390289411,0.45480330075215686,1.489375939108039,5.801625378678431
13.31450846,-0.4240646578168621,0.46665312246784313,1.0467209863041174,5.541877864247059
13.32452846,-0.2986358988639209,0.5002402718109803,0.5974672702256861,5.213960235815686
13.33454846,-0.1442302428345091,0.5700919850364705,0.11515820599039202,4.828033379482353
13.34456746,-0.019519170638430696,0.6357174405011764,-0.2813901632252942,4.473796135501961
13.35458746,0.08664133026353009,0.6667777036972549,-0.6690165688782354,4.131308283384313
13.36460746,0.17814721510666734,0.691391706867843,-0.9726914300939217,3.7904961702470588
13.37462646,0.22342802578313795,0.7286104131462745,-1.1427906862703923,3.6302931698549017
13.38464646,0.1828500611360791,0.7892057894207842,-1.1893088054860783,3.6307904296588234
13.39466646,0.06688538370470656,0.8239849105972549,-1.0230096720743136,3.848244027835294
13.40468646,-0.11569959539333262,0.8492191868913724,-0.6989109142507843,4.289557347619608
13.41470546,-0.24997741951097968,0.8452443873815685,-0.25966729340764705,4.800336654815686
13.42472546,-0.3756116139227444,0.8187442401462744,0.43027662672960787,5.33811598487451
13.43474546,-0.46365079676588167,0.7927048151266667,1.105130835474706,5.868549332031372
13.44476446,-0.5402806363541169,0.7912252537737255,1.7448804887688236,6.3286338636
13.45478496,-0.6207977613737248,0.8262719770874508,2.2716400128276475,6.762514133031373
13.46480496,-0.7019078879462737,0.8874499713815686,2.7348007638080394,7.14395635250196
13.47482396,-0.7891708125560777,0.9662690605050979,3.0469458049060782,7.379906776854901
13.48484396,-0.8648134240462737,1.0471838627366667,3.2266749687884317,7.551845106090196
13.49486396,-0.9368093815580385,1.1407215772972548,3.3456137074256866,7.641171918541176
13.50488396,-0.9638885113756855,1.1899570059109803,3.394165333092353,7.655793544207843
13.51490296,-0.9780575468247051,1.2057287644462744,3.385850272974706,7.666953040031373
13.52492296,-0.9720407345305876,1.1935610819894118,3.321618205719804,7.732850470972548
13.53494296,-0.9292449727894111,1.1601847981678433,3.2107104438178435,7.868289435188235
13.54496196,-0.8957941018521561,1.108913341814902,3.093585900955098,7.991227559933333
13.55498196,-0.8709904759305876,1.0335991033894116,2.9297514440727457,8.126228239835294
13.56500196,-0.8442587561658816,0.9341727353894117,2.780740273268824,8.291391966835294
13.57502096,-0.8129149717933326,0.8321899638698039,2.5573345105041176,8.4951404306
13.58504096,-0.786774593499215,0.7159933945247058,2.3292998188374514,8.738259650894118
13.59506096,-0.7422622677639208,0.6079087165639215,2.0343340541354906,9.065484680245097
13.60507996,-0.6700848774756856,0.5025697221011765,1.71802125343549,9.341577549990197
13.61509996,-0.5588430370345091,0.377982279722745,1.471000889257059,9.620424753029411
13.62511996,-0.46708369841686204,0.2696786450462744,1.2252633879021568,9.857676273715686
13.63513896,-0.37933070264823454,0.15190846121686272,1.0391089708960786,10.097875847396077
