"Time (s)","Linear Acceleration x (m/s^2)","Linear Acceleration y (m/s^2)","Linear Acceleration z (m/s^2)","Absolute acceleration (m/s^2)"
0.01901583333,0.6796230447,-1.270426299,-3.479811936,3.766292816
0.02900783331,0.1661919022,-1.085293511,-3.621182992,3.783972518
0.03899883333,0.1564311451,-1.02759728,-3.757242438,3.898371149
0.04899083331,0.4648016042,-1.068063521,-3.80922594,3.983340617
0.05898283332,0.8793341106,-0.9379004073,-3.782650344,3.995163236
0.06897383332,1.223900589,-0.5593785632,-3.638364451,3.879243857
0.07896583332,1.491413044,-0.1155000508,-3.426343242,3.738646967
0.08895783333,1.402403803,0.2464893758,-3.189249757,3.492679122
0.09894883333,1.119025221,0.4627235037,-2.925861928,3.166543622
0.1089408333,0.8814203972,0.5943186003,-2.665937989,2.870076981
0.1189328333,0.4248972809,0.782904169,-2.343564034,2.507143597
0.1289238333,-0.3423018515,0.9085821757,-1.939427292,2.168886891
0.1389158333,-0.9126465753,0.904957779,-1.629167013,2.075104216
0.1489078333,-1.038773648,0.7704253337,-1.420742426,1.921227453
0.1588988333,-0.9664049989,0.5603971481,-1.259439381,1.68349967
0.1688908333,-0.9693850324,0.3269070098,-0.9174035776,1.374119667
0.1788828333,-0.8076577717,0.2543951038,-0.6127618879,1.045229676
0.1888738333,-0.7459892347,0.5001904151,-0.3027296501,0.9478056925
0.1988658333,-0.9008521566,0.5658140087,0.2681006849,1.097067946
0.2088578333,-1.258460849,0.6235423994,1.119541238,1.796079457
0.2188488333,-1.753971738,0.7615527686,2.428127636,3.090660656
0.2288408333,-1.973672972,1.05747012,3.569163238,4.213378013
0.2388328333,-1.787070487,1.552774894,4.121681848,4.753208606
0.2488238333,-1.325483097,2.06466588,4.520349104,5.143277813
0.2588158333,-0.7776507381,2.417975115,5.459763941,6.021658128
0.2688078333,-0.2492789362,2.421058352,6.671565471,7.101651171
0.2787988333,0.09580224305,1.912578924,7.452771608,7.694864577
0.2887908333,0.1944973961,0.9050276533,7.375773718,7.433635869
0.2987818333,-0.07685068622,-0.2111844724,6.709826726,6.713589175
0.3087738333,-0.1935729513,-1.059415196,5.868011275,5.966019391
0.3187658333,0.161769653,-1.994032977,4.83540527,5.232922803
0.3287568333,0.611188256,-3.269328837,3.950043265,5.163807115
0.3387488333,0.9799373563,-3.943984964,3.237994485,5.19614308
0.3487408333,1.082355139,-3.726927256,2.526710522,4.630955137
0.3587318333,0.6529210036,-3.093871729,2.123361985,3.808807456
0.3687238333,-0.008629759401,-2.312377032,1.99770766,3.055813787
0.3787158333,-0.4645359944,-1.644165413,1.690204343,2.403302793
0.3887068333,-0.4963830006,-1.313124714,1.45279043,2.020220937
0.3986988333,-0.1504273702,-1.564194799,1.534759038,2.196547078
0.4086908333,0.2139768103,-2.272814771,1.006978244,2.495090828
0.4186818333,0.0548239325,-3.125057562,0.0761851269,3.126466792
0.4286738333,-0.4923434517,-3.987075436,-0.7581482273,4.088271192
0.4386658333,-1.193272362,-4.33246871,-1.420676937,4.713014642
0.4486568333,-1.6836157,-3.92142933,-1.344999933,4.47450496
0.4586488333,-1.898892639,-3.215518958,-0.5163991892,3.769883757
0.4686408333,-1.627835894,-2.003929389,0.3644019878,2.607368694
0.4786318333,-1.17532638,0.1678951961,0.3140124375,1.228081718
0.4886238333,-0.5806457636,2.237258437,-0.7171516442,2.420078779
0.4986158333,0.4754072839,2.071392809,-1.270282457,2.475943816
0.5086068333,1.093757137,-0.4797733998,-3.668127948,3.857674148
0.5185988333,2.334587973,-3.132539951,-5.736272337,6.940311799
0.5285908333,2.841962277,-1.82383427,-6.988519058,7.761605481
0.5385818333,1.253087697,0.004472827613,-6.824637975,6.938726992
0.5485738333,-0.5320413316,0.4640388349,-6.186555889,6.226706496
0.5585658333,-1.541016874,0.5496508428,-5.695587995,5.925923697
0.5685568333,-2.57452262,0.2569956529,-5.139964514,5.754428615
0.5785488333,-3.126988605,-0.4264608264,-4.906346029,5.833708763
0.5885408333,-3.134907196,-0.7135702246,-4.752198806,5.737614408
0.5985318333,-2.803308088,-0.4205820358,-4.186515191,5.05592078
0.6085238333,-1.933820397,0.04338838667,-3.34929799,3.867730717
0.6185158333,-0.5813225057,0.3998925403,-1.919022848,2.044626761
0.6285068333,0.8434705789,0.7555965024,-0.7668231565,1.367620724
0.6384988333,1.96612334,1.070862291,-0.122265864,2.242172155
0.6484908333,3.051608639,1.646217493,0.9766118985,3.602237933
0.6584818333,2.890139533,1.527874234,1.349910425,3.536886251
0.6684738333,2.130280849,1.182457278,1.405300514,2.812680438
0.6784658333,1.240830325,1.35129066,0.6314788252,1.940209228
0.6884568333,0.1548125079,1.449978212,-0.2864053935,1.486079331
0.6984488333,-0.2479008206,1.721102784,-1.04339938,2.027888527
0.7084408333,-0.104706383,1.953193684,-1.448979215,2.434228781
0.7184318333,0.05352042368,2.238483721,-1.21103613,2.545639863
0.7284238333,0.377058213,2.607142774,-0.3293724883,2.654779196
0.7384158333,0.9295858859,2.562527349,1.105940614,2.941730949
0.7484068333,1.727075861,1.857546684,3.075952352,3.986822493
0.7583988333,2.473228672,1.260427268,4.850136745,5.588323846
0.7683908333,2.741112717,1.264461554,5.502615845,6.276252313
0.7783818333,2.52848369,1.473107458,5.364403455,6.110654611
0.7883738333,2.113621693,1.460262879,4.994027951,5.616055512
0.7983658333,1.82640573,1.232335197,4.785418008,5.268266645
0.8083568333,1.649611071,0.8791268268,4.99651945,5.334724667
0.8183488333,1.525834725,0.3710982192,5.370971047,5.595821252
0.8283408333,1.408373518,-0.1460415199,5.470818686,5.651079648
0.8383318333,1.264878168,-0.6119754374,5.242940413,5.427969684
0.8483238333,1.078131403,-1.01172706,4.681595432,4.909510643
0.8583158333,0.8304095071,-1.377617602,3.883786125,4.203713225
0.8683060833,0.5951378318,-1.644049346,3.103628978,3.5622465
0.8782980833,0.4112164043,-1.743311533,2.434445552,3.022376412
0.8882900833,0.3325543237,-1.636287313,1.783014858,2.442779264
0.8982810833,0.4633636642,-1.406981735,0.954373768,1.762138694
0.9082730833,0.6497155599,-1.11558048,-0.1748709244,1.302777785
0.9182650833,0.8013302804,-0.8036381033,-1.350019183,1.763665562
0.9282560833,0.9308616753,-0.6142567286,-2.383877077,2.631859553
0.9382480833,0.7346527261,-0.6055388224,-3.139465978,3.280646052
0.9482400833,0.4041943368,-0.6326073378,-3.631046076,3.707837741
0.9582310833,0.06590456148,-0.614541488,-3.982856669,4.030527497
0.9682230833,-0.2454513489,-0.6408823174,-4.20951112,4.26508621
0.9782150833,-0.4690287756,-0.7150318824,-4.41978752,4.501753026
0.9882060833,-0.6122434592,-0.7461221127,-4.447261248,4.550788159
0.9981980833,-0.6349162571,-0.6716987519,-4.301282001,4.399468686
1.008190083,-0.4133100729,-0.5626429175,-4.145396985,4.203773119
1.018181083,-0.06950007834,-0.5380031893,-3.942895043,3.980037565
1.028173083,0.06461713707,-0.6089003867,-3.79997506,3.848992792
1.038165083,-0.06958258803,-0.5189479905,-3.75025677,3.786631035
1.048156083,-0.3148229712,-0.2156879979,-3.90434669,3.9229527
1.058148083,-0.5285644676,0.004401783943,-4.301146345,4.333504316
1.068140083,-0.6218783549,0.07271948218,-4.598522869,4.640951776
1.078131083,-0.6328599375,0.2034211242,-4.733320486,4.779771404
1.088123083,-0.6176448246,0.4310032359,-4.698941782,4.758918237
1.098115083,-0.4625812702,0.559405168,-4.622293555,4.678943608
1.108106083,-0.3608957049,0.6112313792,-4.383350596,4.440451774
1.118098083,-0.6051433679,0.7342448097,-3.736626325,3.855864395
1.128090083,-0.6492096296,0.9707936266,-2.754567161,2.991914713
1.138081083,-0.7343105178,0.906434201,-1.68744855,2.051418413
1.148073083,-0.9323576854,0.7857327595,-0.6794248241,1.39580977
1.158065083,-0.8503317017,0.8877561477,0.05923989594,1.23072513
1.168056083,-0.7962800402,1.13961239,0.7782456923,1.593249717
1.178048083,-0.6162626159,1.416688551,1.409439173,2.091244808
1.188040083,0.02909521518,1.586479707,2.060903782,2.600978429
1.198031083,0.773709934,1.604073979,2.75599622,3.281340512
1.208023083,0.9745180106,1.55408584,3.220163986,3.705984923
1.218015083,0.5179321099,1.506861095,3.566836047,3.906559025
1.228006083,0.006572562754,1.356276873,3.714616236,3.954478972
1.237998083,-0.701208626,1.095831071,3.95062097,4.159320295
1.247990083,-1.208420378,0.9952206624,4.272458151,4.550235448
1.257981083,-0.8989642368,1.245887874,4.301921686,4.568030592
1.267973083,-0.7077640857,1.467376894,4.117280649,4.427880406
1.277965083,-0.4765998235,1.761912549,4.360737074,4.727315417
1.287956083,-0.4257999448,1.813802787,4.470982232,4.843642045
1.297948083,-0.6390787438,1.688603375,4.710050322,5.044241968
1.307940083,-0.3470394118,1.80539186,5.375834177,5.681502373
1.317931083,0.3185005409,1.935500886,6.213471208,6.515737159
1.327923083,0.8088829096,1.411901728,6.247920079,6.456335134
1.337915083,0.8642281213,0.3455204514,5.591324539,5.668261173
1.347906083,0.4133958077,-0.2401524559,4.884737644,4.908078152
1.357898083,-0.4027748156,-0.7975499824,3.764455563,3.869035954
1.367890083,-1.293413166,-1.034338535,2.905732888,3.344556389
1.377881083,-1.299676849,-0.6059586525,1.973642274,2.439592103
1.387873083,-0.6185254153,-0.5980739745,0.936626299,1.271823491
1.397865083,0.6375710392,-1.287726164,0.6571504408,1.580057659
1.407857083,0.6900261185,-0.98912494,0.3489437038,1.255494285
1.417848083,0.05106980992,-0.5920867181,-0.2145302492,0.631821205
1.427840083,-0.4693113423,-0.7302537927,-0.6666012955,1.094477512
1.437832083,-0.1165795564,-1.651965599,-0.6767526466,1.78901517
1.447823083,0.3974011148,-2.518035301,-0.6024327815,2.619418767
1.457815083,0.3836336993,-3.122075482,-0.9624049187,3.289491352
1.467807083,-0.3299330901,-3.583018801,-1.146429074,3.776397648
1.477798083,-0.5138028793,-3.861878362,-1.180022498,4.070694164
1.487790083,-0.3734015836,-3.867261309,-1.216065904,4.071112263
1.497782083,-0.4757774127,-3.472323699,-1.352555121,3.756700863
1.507773083,-0.6329411408,-2.828589695,-1.362390137,3.202755226
1.517765083,-1.705814947,-1.996665393,-1.543998808,3.046376478
1.527757083,-2.208178187,-1.825358639,-2.212261882,3.619680608
1.537748083,-2.150077036,-1.970043898,-2.893363103,4.107974473
1.547740083,-2.054627673,-1.688151093,-3.69356626,4.551239469
1.557732083,-1.338048909,-1.411142467,-4.347460386,4.762573858
1.567723083,-0.9743187667,-1.185777912,-4.676817087,4.922193046
1.577715083,-0.5865686641,-1.029474236,-5.214380858,5.347302847
1.587707083,-0.3819881101,-0.690145694,-5.388147243,5.445580475
1.597698083,-0.1591494425,-0.4224709788,-5.555143722,5.573457818
1.607690083,0.0278238295,-0.5165377682,-5.490537252,5.514851289
1.617682083,-0.03434022244,-0.690961673,-4.907190952,4.955716933
1.627673083,-0.2359733047,-0.7192414391,-4.253416693,4.320248282
1.637665083,-0.3982615691,-0.6823265049,-3.425319394,3.515251725
1.647657083,-0.4814800559,-0.4783463868,-2.701064553,2.785029269
1.657649083,-0.6381345646,-0.258417111,-2.083012689,2.193840693
1.667640083,-0.6654053206,-0.4078049925,-1.213478512,1.442774844
1.677632083,-0.2674181686,-0.5135656285,-0.01589857936,0.5792364772
1.687624083,0.4401747398,-0.6273243785,3.333236273,3.420197908
1.697615083,0.3938183065,-0.1210934973,1.918059812,1.96181292
1.707607083,0.2601795349,0.8076963633,0.2470302433,0.8837933847
1.717599083,0.431793012,0.9248935685,0.2567331129,1.052513757
1.727590083,0.8009999127,1.438260684,-0.4569324213,1.708502822
1.737582083,1.023153177,2.075914169,-0.4356286758,2.355001997
1.747574083,0.9307032157,2.35808267,-0.1052077818,2.537288125
1.757565083,0.8144788411,2.366720469,0.598863641,2.573592668
1.767557083,0.9939388065,2.160956366,1.905835038,3.047926173
1.777549083,1.048665383,1.723145217,3.184443346,3.769563363
1.787540083,1.013994318,1.518187444,3.934551651,4.337484788
1.797532083,0.7798305801,1.64216128,4.080363083,4.467011562
1.807524083,0.6948472939,1.465591447,3.999311904,4.315700031
1.817515083,0.9293788945,1.096540923,4.185080284,4.425047357
1.827507083,1.045061963,0.894181653,4.796645247,4.989941979
1.837499083,0.9544930512,0.5451157424,5.722524948,5.827134797
1.847490083,0.9527776974,0.01894234747,6.49353588,6.563090155
1.857482083,0.9551336867,-0.3899098814,6.535781429,6.616702272
1.867474125,0.7023571654,-0.8605174783,6.108846393,6.209009597
1.877466125,0.7530795684,-1.252803376,5.279861487,5.478465338
1.887457125,1.264991751,-0.9086327541,3.603602169,3.925782241
1.897449125,1.861019492,-0.4909062061,2.330589062,3.022586281
1.907441125,2.430832265,-0.3767460448,1.502014046,2.882174401
1.917432125,2.901476992,-0.2897964862,0.546045742,2.966600191
1.927424125,3.0120417,-0.1592457023,-0.4096945202,3.043945466
1.937416125,2.594974134,-0.3039897251,-1.083548117,2.828493774
1.947407125,1.918253208,-0.6745198873,-1.589487222,2.580918844
1.957399125,1.370128489,-0.832960428,-2.075160463,2.622473279
1.967391125,0.9749336015,-1.012664661,-2.365491092,2.751641937
1.977382125,0.6556501915,-1.300515486,-2.842333283,3.193755813
1.987374125,0.3591558294,-1.382946901,-3.659407411,3.928459958
1.997366125,-0.147128627,-1.423221645,-4.31159532,4.542803197
2.007357125,-0.6633053662,-1.331275349,-4.896166027,5.117099747
2.017349125,-0.9791361415,-0.3872286406,-5.34321373,5.445969754
2.027341125,-0.4163738312,0.6293369901,-5.375020829,5.427732595
2.037332125,1.086099257,0.1926742342,-5.565337758,5.673598445
2.047324125,1.453486103,-0.6492493907,-5.609129895,5.830650461
2.057316125,0.8748381865,-0.9527184212,-5.447876551,5.599318991
2.067307125,0.08410083164,-1.04396276,-5.507580716,5.606280098
2.077299125,-0.5497549598,-1.147796738,-5.737152928,5.876613955
2.087291125,-0.767330037,-1.103847019,-6.007239327,6.155826342
2.097283125,-0.6941522793,-0.9477938962,-6.324929663,6.433109349
2.107274125,-0.3757655398,-0.9047317842,-6.517692482,6.590906966
2.117266125,-0.02454544187,-0.9642994165,-6.315599846,6.388840055
2.127258125,0.2907015621,-0.766846253,-6.010272862,6.065965748
2.137249125,0.4401580752,-0.6162681708,-5.784455733,5.833819822
2.147241125,0.1977875147,-0.4196078897,-5.787630771,5.806191576
2.157233125,-0.3013074611,-0.2761388522,-5.956198981,5.970204784
2.167224125,-0.3659866198,-0.3030720046,-6.22152984,6.239650022
2.177216125,-0.06461155023,-0.2382731608,-6.62015792,6.624759591
2.187208125,-0.10875854,-0.06432609648,-6.740445671,6.74162993
2.197199125,-0.2307169867,0.07327730656,-6.472159045,6.476684537
2.207191125,-0.2580752682,-0.08487701297,-5.990415133,5.996572389
2.217183125,-0.303544752,-0.4772447714,-5.559053755,5.587752736
2.227174125,-0.3601144438,-0.5222759333,-5.184077078,5.222749249
2.237166125,-1.043855463,-0.1334659132,-4.488553115,4.610266418
2.247158125,-1.572542869,0.2422562841,-3.875152711,4.189079579
2.257150125,-1.219636507,0.2864849156,-3.565908678,3.779588803
2.267141125,-0.6135737007,0.01484754235,-3.202518259,3.260799953
2.277133125,0.0366541484,-0.4662946907,-3.018832072,3.054852099
2.287125125,0.5894224343,-0.9444411027,-3.087344483,3.28193293
2.297116125,1.045258064,-1.056464984,-3.448253928,3.754881867
2.307108125,1.309422842,-1.254233458,-4.314016067,4.679575234
2.317100125,1.246625646,-1.957288489,-5.521490073,5.989316017
2.327091125,1.067711957,-2.639609147,-6.355058611,6.963785983
2.337083125,0.7164565565,-3.078812225,-6.524632543,7.250049968
2.347075125,0.5196724606,-3.561330893,-5.565067617,6.627451605
2.357066125,0.715959397,-4.43397462,-2.769143685,5.276446297
2.367058125,1.95950166,-5.645600733,1.220044935,6.099259302
2.377050125,3.635028614,-7.60009513,4.644097822,9.619902473
2.387042125,5.06216614,-9.159321257,6.725452825,12.43987169
2.397033125,5.776045098,-9.534910138,6.87577363,13.09784224
2.407025125,5.491010292,-9.317627605,4.986042994,11.90924023
2.417017125,4.645053257,-9.13576458,1.798664346,10.40547489
2.427008125,4.135050337,-9.369416978,-0.8447992855,10.27610343
2.437000125,4.487683049,-10.12509593,-1.912837663,11.23903086
2.446992125,5.098294331,-10.92395656,-1.499426653,12.14799211
2.456983125,5.393010373,-10.93279872,-0.1604440892,12.19165252
2.466975125,5.452014626,-10.5626267,1.302077277,11.95779878
2.476967125,6.251069389,-10.10714264,3.024269983,12.26280595
2.486958125,7.671280888,-9.438376116,5.093516572,13.18618236
2.496950125,9.414812422,-8.074883194,7.751235715,14.62614394
2.506942125,10.57050524,-5.863220651,10.30477502,15.88399589
2.516934125,10.61395005,-3.040001332,11.97394575,16.28720113
2.526925125,10.26748615,-0.0356305933,12.13625628,15.8968946
2.536917125,8.849136992,2.060006819,10.47515119,13.86649364
2.546909125,6.294576766,3.03438625,7.740279787,10.42790141
2.556900125,3.80819566,3.587069459,5.16170797,7.349329946
2.566892125,1.45582455,3.400633619,3.231673061,4.911969555
2.576884125,0.01375089705,2.908965229,2.228185459,3.664297781
2.586875125,-0.4495707768,2.969750836,2.606991039,3.977176912
2.596867125,-0.5391501206,3.142586345,4.375239338,5.413801904
2.606859125,0.2895406705,2.780220942,6.8470141,7.395611156
2.616850125,1.33954565,2.103864152,7.995946952,8.375905598
2.626842125,1.184430714,0.6892803061,7.85879817,7.977386297
2.636834125,-0.02154815912,-1.258914301,6.322010733,6.446173225
2.646826125,-1.408684298,-2.747172772,3.736712864,4.847099413
2.656817125,-3.062953407,-3.079535818,2.346634406,4.936792225
2.666809125,-3.366620366,-3.348323259,1.979781266,5.144408148
2.676801125,-1.97996136,-3.478924621,2.049618655,4.497121317
2.686792125,-0.2129596871,-2.902867752,2.7749488,4.021484037
2.696784125,0.4939002728,-2.991895119,2.918159391,4.208447233
2.706776125,0.5181439984,-3.403400814,2.494813376,4.251553138
2.716767125,0.7406217831,-3.520798579,1.495018437,3.896103616
2.726759125,1.096838838,-3.289217849,-0.04554279327,3.467576047
2.736751125,2.127547422,-2.54336807,-1.758546014,3.753353602
2.746742125,3.292609819,-2.113810558,-2.948760209,4.899455201
2.756734125,3.962399016,-2.015230595,-3.186443093,5.469477114
2.766726125,4.367141529,-1.581170728,-2.571407223,5.308875692
2.776718125,4.924889889,-1.167332286,-1.734371286,5.350256895
2.786709125,5.437957335,-0.9244582433,-1.791281067,5.799542299
2.796701125,5.816945786,0.3272031713,-2.892024091,6.504438757
2.806693125,5.428902336,0.6849954665,-3.526372145,6.509800294
2.816684125,5.209332372,0.9228046507,-4.198513677,6.753978774
2.826676125,6.567628289,1.994722071,-4.930742952,8.451324366
2.836668125,7.892988594,2.504486425,-4.094412773,9.237745242
2.846659125,7.752720323,3.762903712,-2.265722975,8.910534066
2.856651125,9.093097447,2.677819532,2.12467527,9.714390543
2.866643875,10.39403744,1.998616317,5.908495642,12.12191413
2.876634875,9.881492736,2.234426338,7.859868211,12.8224057
2.886626875,8.435223706,1.910711616,7.695119986,11.57664414
2.896618875,7.486144007,2.044193024,5.941280395,9.773427748
2.906610875,5.533992004,2.341329228,3.967546905,7.20057765
2.916601875,5.434884038,1.169064231,2.913156513,6.276237452
2.926593875,3.714585831,0.2557385015,3.186150148,4.90052067
2.936585875,2.175465939,2.253506387,1.579763303,3.508075709
2.946576875,3.216005446,1.568972266,1.704500785,3.963544869
2.956568875,3.712904171,2.521325237,0.9936161133,4.596739205
2.966560875,1.733931575,2.553391367,1.579363938,3.467090514
2.976551875,-0.08239019215,3.828099582,1.133141277,3.993137076
2.986543875,0.9048636389,5.84223324,-3.178321896,6.712093377
2.996535875,1.157701337,6.780335376,-6.692398515,9.596948374
3.006527875,0.02032492161,7.000541518,-7.815409491,10.49231243
3.016518875,-1.265875411,5.274451643,-6.785252885,8.686883066
3.026510875,-1.874602135,3.887231305,-3.703462672,5.686856438
3.036502875,-3.349977436,3.513263564,-1.078691932,4.972820727
3.046493875,-7.523134663,2.719936149,-0.1024408793,8.000381362
3.056485875,-11.81339291,0.7336828923,0.6087805188,11.85179971
3.066477875,-10.36763609,1.210629748,2.660324078,10.77176061
3.076468875,-9.836747503,1.761026696,2.536168978,10.30994518
3.086460875,-9.397167279,2.1168362,1.524049863,9.752460015
3.096452875,-8.818907472,3.102655709,1.006387529,9.402787741
3.106444875,-8.145069078,3.759074663,1.219018164,9.053109846
3.116435875,-7.743524991,3.504117642,2.323185318,8.811254721
3.126427875,-7.543910404,3.253685196,3.544124584,8.947506391
3.136419875,-7.329237483,3.265945053,3.829506422,8.890963874
3.146410875,-6.795094333,3.263146868,3.115588288,8.156489739
3.156402875,-5.72554445,3.108495031,2.021660779,6.821415756
3.166394875,-4.163283033,2.646261816,-0.08033460349,4.933769438
3.176385875,-2.723545927,2.767371978,-1.092863901,4.033658586
3.186377875,-1.211163014,2.492467473,0.07757676423,2.772242433
3.196369875,0.01755041778,1.67272643,1.198660498,2.057937977
3.206361875,0.3686938441,-0.3095988129,0.9317435816,1.048776753
3.216352875,0.9057951003,-1.834169662,-1.157171871,2.350253147
3.226344875,3.435158504,-2.108879163,-4.511336791,6.049780567
3.236336875,7.629470372,-1.251277399,-6.803794405,10.29884127
3.246327875,10.3192574,1.489907386,-5.937834631,11.9985323
3.256319875,9.885309799,2.49569689,-4.901697785,11.31258122
3.266311875,6.737016864,1.940677134,-4.789352599,8.490672664
3.276302875,4.373745959,1.363942865,-4.44007385,6.379988217
3.286294875,3.261136596,-0.09256792881,-4.885262139,5.87446737
3.296286875,2.78518786,-1.996437791,-4.230222835,5.444062867
3.306278875,2.018258868,-3.457398974,-2.230678858,4.582892612
3.316269875,0.5603152871,-3.189507619,1.1160256,3.425262795
3.326261875,2.599483214,-0.3022271916,3.273455802,4.190962556
3.336253875,7.700678349,0.7879337977,8.346532554,11.38357995
3.346244875,9.89702528,-8.227529436,0.218248786,12.87210094
3.356236875,8.176477396,-5.62306381,0.1732553387,9.924900334
3.366228875,6.530023676,-6.700545441,-1.480960269,9.472685033
3.376219875,5.682391999,-5.688168463,-2.252095454,8.349657072
3.386211875,3.977044537,-3.324767751,-1.938316613,5.534260126
3.396203875,1.034932612,0.3816239748,-1.80145873,2.11233897
3.406195875,-2.972590536,7.862813453,2.511016011,8.772988733
3.416186875,-6.680547379,4.734237622,6.001952859,10.15215038
3.426178875,-6.498545775,-3.444010604,8.203975098,11.01805399
3.436170875,-7.126901602,-10.33752059,15.30035423,19.79287493
3.446161875,-4.859039131,-15.30892391,21.06488441,26.48967285
3.456153875,-0.1121098351,-14.96732139,12.6076015,19.56999984
3.466145875,4.144425763,-11.88617086,-1.627538271,12.69276185
3.476136875,6.616727943,-5.096246637,-6.67771908,10.69321049
3.486128875,5.235061875,-2.345797962,-6.427077012,8.614868533
3.496120875,0.2563010037,-3.923497198,-4.709388125,6.134970006
3.506112875,-4.525477113,-4.779164118,-3.499281118,7.454214989
3.516103875,-6.383090748,-4.749855242,-2.803468595,8.43589998
3.526095875,-6.607383508,-4.954550475,-1.601248166,8.412436206
3.536087875,-5.207835485,-4.307535013,0.2829048117,6.764350926
3.546078875,-3.556713347,-2.983721881,1.598999473,4.910153298
3.556070875,-2.67885215,-1.671144174,2.37910341,3.953366253
3.566062875,-2.105549612,-0.6544379175,3.603643684,4.224674657
3.576053875,-1.75042891,-0.123852506,4.481191471,4.812527175
3.586045875,-1.74411684,-0.2106567612,4.892154837,5.198028354
3.596037875,-1.893088108,0.3762832376,4.791279257,5.165435952
3.606029875,-1.717807878,2.384615873,3.960043758,4.931450429
3.616020875,-1.492741531,4.791477478,2.257753805,5.503088764
3.626012875,-1.365485069,6.359542841,0.3498875175,6.513889459
3.636004875,-1.646630307,7.264466121,-0.9103600216,7.504173156
3.645995875,-2.099866118,6.720518945,-1.929885805,7.300635029
3.655987875,-0.3057935911,4.130967811,-0.7737141732,4.213910108
3.665979875,2.224311824,5.749785837,0.1020040192,6.165874235
3.675970875,1.921374013,5.052741013,-0.6569651572,5.445500258
3.685962875,-0.3092229831,0.5824966997,-1.615717247,1.745125635
3.695954875,1.173064311,-0.5049263674,0.1021163589,1.281194078
3.705946875,3.795841078,1.104472963,2.40102009,4.625274856
3.715937875,3.93289572,2.714236575,2.474913547,5.381444601
3.725929875,3.775244846,3.042381148,1.219036802,4.999460713
3.735921875,4.807450317,0.9184280097,-0.4796424953,4.917839513
3.745912875,5.813681286,0.2737216133,-1.521684079,6.015757313
3.755904875,6.700283486,3.177785121,-0.5861927978,7.438799571
3.765896875,6.186814336,6.129405788,-0.3253116701,8.71505104
3.775888875,6.015351169,6.476192454,-1.318744181,8.936699872
3.785879875,6.533577613,6.855710079,-2.540821023,9.805313283
3.795871875,7.304150004,5.849939286,-1.630274475,9.498957406
3.805863875,9.105997574,2.685265376,0.0660787948,9.493903748
3.815854875,9.3881766,1.514342315,0.5155829179,9.523492966
3.825846875,6.537688791,2.426570522,1.405043821,7.113632501
3.835838875,3.228438381,3.098730181,2.262686516,5.014448463
3.845830875,0.4706985211,4.372666563,1.683008759,4.70895832
3.855821875,-1.345123309,4.625686694,-0.5131433865,4.844548508
3.865813708,-3.386666375,4.912293232,-3.314013551,6.825160786
3.875805708,-2.655119471,2.686548255,-5.071465552,6.323524632
3.885796708,6.418371093,-4.974893523,-2.839006802,8.602616618
3.895788708,20.01567874,-10.41908925,-4.804277033,23.07088846
3.905780708,16.50122381,-6.018665956,-2.019967425,17.6803562
3.915771708,9.217399896,-5.1845355,6.216083744,12.2670113
3.925763708,5.065881461,-7.128920646,8.229038018,12.00840253
3.935755708,1.689550039,-8.178573039,2.695793872,8.77558778
3.945747708,1.442170717,-12.0190734,-1.932533424,12.25857525
3.955738708,1.088198408,-13.43518249,-3.572414583,13.94454912
3.965730708,-1.587599156,-6.863925417,-2.067564053,7.342258803
3.975722708,2.685437284,-2.502208934,0.848183654,3.767232203
3.985713708,7.20724293,-1.770203024,2.039662017,7.696635014
3.995705708,3.208564864,-6.470459844,2.899707332,7.782675741
4.005697708,-3.319947891,-8.164896401,2.171328449,9.077568753
4.015688708,-3.597514048,-6.242274007,1.375822946,7.334915193
4.025680708,-2.202650814,-3.268955785,0.740606288,4.010765539
4.035672708,-0.896362372,-1.770228751,0.7048379928,2.105699867
4.045664708,-0.07036597788,-0.5886310136,3.107641045,3.163679931
4.055655708,1.233625678,-0.1402007362,3.508093749,3.721318356
4.065647708,-0.2992663443,0.961197761,2.440038999,2.639555227
4.075639708,-4.596548849,3.787248302,1.895479619,6.250148319
4.085630708,-7.273732204,1.611302307,2.546807402,7.873354002
4.095622708,-7.159710914,-0.8145598251,2.663692659,7.682462278
4.105614708,-6.580323763,0.5190786758,3.419416046,7.433875813
4.115606708,-6.778260199,2.24200433,3.695892282,8.039341671
4.125597708,-6.283662354,3.278900437,3.313931983,7.824177007
4.135589708,-7.968536375,3.143902845,3.484041227,9.247715411
4.145581708,-10.53712582,2.51615162,3.939232348,11.52734103
4.155572708,-12.03123677,2.320863973,3.499969627,12.74311011
4.165564708,-12.50763633,2.849482381,3.622764664,13.32985147
4.175556708,-9.70822278,1.898131039,3.545644275,10.50828646
4.185547708,-7.337383239,1.324770906,2.531254393,7.873973556
4.195539708,-6.804714172,1.402037475,1.800584864,7.177182588
4.205531708,-5.636042874,1.292962638,1.547187003,5.985859945
4.215523708,-4.607577283,2.182068615,0.8317561939,5.165560011
4.225514708,-2.56209027,4.045672722,-0.197944622,4.792802562
4.235506708,0.3781090307,4.475231404,-2.07688276,4.948141525
4.245498708,4.401579875,2.988013152,-5.401715122,7.581599717
4.255489708,12.21079658,1.720514847,-9.115420947,15.33475215
4.265481708,21.77006096,0.04845324486,-10.92221526,24.35636853
4.275473708,22.94653712,-0.4091226625,-6.258997044,23.78835831
4.285465708,12.40896807,-0.3872599232,-2.709298894,12.70719322
4.295456708,1.462252979,-0.2682983208,-3.431709232,3.739892514
4.305448708,-2.418156379,-0.07553462416,-5.226870511,5.759632027
4.315440708,-3.966581529,-2.243898243,-5.265047566,6.963445572
4.325431708,-3.066796782,-3.743862255,-2.662318563,5.523557478
4.335423708,-1.630430011,-6.107755888,1.298560762,6.453622553
4.345415708,-1.821317629,-9.655471539,5.143061199,11.09037452
4.355407708,-0.2663997298,-10.17434936,5.901702347,11.76513682
4.365398708,3.087487155,-8.193472914,0.6339627224,8.778808806
4.375390708,4.49491664,-4.572241682,-2.521256239,6.889586535
4.385382708,2.977661827,-2.301483377,-4.213076168,5.649186356
4.395373708,-0.1440794867,-3.659417643,-3.231789713,4.884317878
4.405365708,-2.288896075,-5.034895896,0.7971058863,5.587897612
4.415357708,-3.011851666,-5.141506425,3.831256494,7.084127688
4.425349708,-3.60700174,-4.482738352,7.532136451,9.478316528
4.435340708,-4.432879436,-2.692020957,9.072693003,10.45041412
4.445332708,-5.83935641,-0.8444569311,8.745146016,10.54934925
4.455324708,-6.760779948,-0.6943966198,7.239671588,9.929913236
4.465315708,-5.541068305,-0.2387687123,5.111122538,7.542149697
4.475307708,-1.04432441,-0.8180868655,2.978585979,3.260652393
4.485299708,5.132912187,-3.764404693,0.928449845,6.432693784
4.495291708,8.381542173,-5.588199787,-0.1608381915,10.07492407
4.505282708,6.636711972,-1.909538664,0.4206068864,6.918756671
4.515274708,2.696002033,1.868149733,0.7511442862,3.36491131
4.525266708,-0.716734153,2.731354299,-0.3489232385,2.845303425
4.535257708,-2.140810661,3.574207631,-1.181595106,4.330611674
4.545249708,-3.221481364,3.568337612,-0.751360487,4.865749487
4.555241708,-4.880130622,2.248879486,1.108620247,5.486544695
4.565233708,-4.731535331,0.9323519844,2.690331988,5.522190962
4.575224708,-4.274121099,1.267296869,4.08441345,6.046204243
4.585216708,-4.200398235,0.5639937705,5.094530479,6.626890304
4.595208708,-4.308981614,2.837279534,5.585489602,7.603628857
4.605199708,-2.685505112,2.044395922,4.030199236,5.256804949
4.615191708,-1.650966017,-2.625392227,0.151229462,3.105035182
4.625183708,-2.689264287,-0.1266249633,-4.358540275,5.122992252
4.635175708,-2.818500617,2.790174365,-0.8838166592,4.063268463
4.645166708,-1.932728137,3.25999405,1.167472034,3.965600863
4.655158708,-0.9778819138,2.228384995,-0.3925224904,2.464959762
4.665150708,-0.8320862693,0.4890424061,-2.610246769,2.782969318
4.675141708,-1.292017143,-0.8540834945,-4.533457392,4.790720493
4.685133708,-1.359315671,-1.23050268,-4.366742164,4.736065146
4.695125708,-0.8847919017,-1.830437531,-2.808322368,3.466991893
4.705117708,-0.5207658899,-0.01349946678,-0.2259919614,0.5678483198
4.715108708,0.009778883457,1.753820879,2.997544114,3.472931617
4.725100708,-0.5758168405,2.104620489,4.619176989,5.108599465
4.735092708,1.068268758,3.759448593,3.116547816,4.998752059
4.745084708,6.243430586,2.985817523,-0.06974661157,6.921011224
4.755075708,9.996437302,1.708193302,-4.436346835,11.06923016
4.765067708,11.40208689,1.017673386,-4.588577925,12.33281363
4.775059708,11.24861269,0.7504375041,-3.79129136,11.89404616
4.785050708,10.52106001,1.721247795,-2.215533838,10.8887092
4.795042708,9.433784882,2.318515731,-1.293196526,9.800212735
4.805034708,7.899062097,0.8366552836,-1.822486487,8.149639935
4.815026708,9.912845507,-1.60318491,-1.129865082,10.10501376
4.825017708,11.24145452,-3.069474807,-0.4397725245,11.66127674
4.835009708,9.585848742,-1.969086708,-0.1324523715,9.786896454
4.845001708,8.916829038,-1.048036222,1.397571664,9.086331855
4.854992708,10.46425431,-1.397962843,2.108253949,10.76567012
4.864984708,9.561834812,-3.074053177,-0.3017433345,10.04835991
4.87497625,5.820892072,-3.272181401,-3.182426641,7.397147759
4.88496825,5.468164051,-4.266868798,-4.311411717,8.166716501
4.89495925,8.890567439,-4.240159886,-4.672975466,10.9021945
4.90495125,8.740088174,-4.266256009,-2.38987749,10.01506845
4.91494325,3.649095261,-5.064223775,5.032194482,8.017807679
4.92493425,-2.096191436,-4.030055979,10.37761027,11.32829046
4.93492625,-6.209337226,-4.429191597,9.905416034,12.50163485
4.94491825,-6.930717577,-6.139388739,7.766577054,12.0849766
4.95491025,-6.532477167,-4.682021109,3.850279241,8.911746733
4.96490125,-3.369167998,0.4389341068,-1.047919132,3.555571776
4.97489325,0.7835203193,0.5246741688,-4.517986829,4.615343114
4.98488525,1.122415875,-3.562421983,-3.679617727,5.243114952
4.99487725,0.220330541,-4.161355791,-1.46246918,4.416360908
5.00486825,0.2864919323,-4.58829375,0.7462894893,4.657409706
5.01486025,0.4254010186,-4.0782499,2.174496178,4.64128451
5.02485225,0.154623186,-4.57932646,2.421206871,5.182314336
5.03484325,1.489815,-4.225319068,2.195546447,4.989318005
5.04483525,2.429831222,-3.822599106,2.44412094,5.146850577
5.05482725,-0.1025496376,-2.845832841,2.725622566,3.94186496
5.06481925,-1.905744698,-3.030190288,3.526964175,5.025275349
5.07481025,-8.313232076,-7.608713926,6.548914275,13.03421012
5.08480225,-9.998187958,-4.749405591,8.339458008,13.85883025
5.09479425,-3.551432142,8.007449595,6.036927395,10.63844028
5.10478625,-5.871867514,10.03697956,3.918297854,12.27081272
5.11477725,-6.550882448,5.896866699,3.936067542,9.652964592
5.12476925,-5.423500679,3.30928023,5.83092414,8.623535909
5.13476125,-2.02371052,4.057439659,7.52087179,8.781898049
5.14475225,-0.6042886877,6.650715469,6.992319163,9.66900762
5.15474425,-4.284339693,6.762339401,6.234930489,10.14687927
5.16473625,-5.656376567,7.952461794,5.239491141,11.07648463
5.17472825,-2.037187475,12.10721432,0.473107574,12.28652116
5.18471925,0.8442674813,14.50418916,-1.031513745,14.56531193
5.19471125,0.1789917496,12.35579233,-0.8320213652,12.38506769
5.20470325,0.01013731778,8.881611843,0.2182888395,8.884299731
5.21469525,-0.8340732993,7.440286633,1.023746889,7.55656014
5.22468625,-2.152270035,7.20547824,1.882178373,7.752017699
5.23467825,-1.907567422,6.041171304,2.666370976,6.873434249
5.24467025,-0.9116478708,2.75597634,1.662379197,3.345147534
5.25466125,7.18128714,0.1036787349,-3.315319819,7.91030845
5.26465325,6.572302553,-5.151925578,-3.257413673,8.963718082
5.27464525,1.052665609,-8.242457963,-4.12319043,9.276147771
5.28463725,-0.5558224328,-6.199332055,-9.928339459,11.7180451
5.29462825,2.500361214,-6.264772924,-14.05187663,15.58699531
5.30462025,4.479884326,-8.29921747,-12.4827155,15.64495319
5.31461225,0.4476064047,-5.931763467,-7.215497444,9.351447626
5.32460325,-4.594993198,-2.355008789,-3.163016809,6.055138662
5.33459525,-7.859644847,-0.5136164993,-3.160793697,8.486956806
5.34458725,-9.080842268,-0.4064171559,-1.091987404,9.155288509
5.35457925,-11.08969121,-1.315544584,3.504135768,11.70431016
5.36457025,-11.66534959,-1.661270565,3.295736325,12.23528009
5.37456225,8.026421471,-3.144661814,-2.490792246,8.973092308
5.38455425,10.90275222,-7.046585417,-0.5145655024,12.99188784
5.39454625,3.684921444,-11.34298558,2.711705316,12.2309163
5.40453725,2.041016524,-7.818356488,4.64578299,9.320715971
5.41452925,-1.878308101,-6.273122163,7.9857459,10.32725717
5.42452125,-5.870024471,-3.608740702,7.223903986,9.983235225
5.43451225,-8.800627322,-0.1784956133,2.760538337,9.225154408
5.44450425,-6.780709598,1.739405739,1.717054757,7.207761928
5.45449625,-4.056640345,4.138101414,7.718510018,9.651715449
5.46448825,-6.902203045,3.71657213,11.7689529,14.14077677
5.47447925,-5.735359586,1.13217941,12.95381514,14.21187906
5.48447125,-1.317758048,-1.664898178,13.08660657,13.25773902
5.49446325,3.626210428,-3.492308605,11.8821164,12.9046624
5.50445525,4.70265067,-4.559956389,9.05437777,11.17541419
5.51444625,3.513279937,-5.44471847,5.331078418,8.390976834
5.52443825,3.092455534,-4.263880286,0.3000349608,5.275791627
5.53443025,-0.3139846632,-1.360014414,-1.817105294,2.291309064
5.54442125,-4.811393386,0.9437254035,-0.5301299134,4.931648982
5.55441325,-5.121902465,2.14880322,0.500015291,5.576849956
5.56440525,-2.284482743,2.260292666,1.552902364,3.569214212
5.57439725,-0.3539908011,1.745774526,4.148171489,4.514461749
5.58438825,-0.005107615963,1.701780075,2.999436858,3.448579849
5.59438025,0.2134124078,1.315948042,-0.1526356443,1.34185012
5.60437225,-0.5113412015,-0.4692753088,-2.61831885,2.708741911
5.61436425,-0.5377505165,0.2793934125,-2.617801956,2.687028727
5.62435525,2.289586193,2.852699811,-0.4287412405,3.68292278
5.63434725,3.393266128,3.931859593,2.649707288,5.830499429
5.64433925,2.116546909,5.171303836,4.86332514,7.407704475
5.65433025,-3.92123988,12.39962188,3.705379974,13.52244748
5.66432225,-20.04131762,20.78698496,3.405277478,29.07488728
5.67431425,-4.632764749,-0.5994284821,10.79789293,11.76504634
5.68430625,13.45519634,-7.813278766,9.775976222,18.37550937
5.69429725,14.81248946,-5.994126361,-1.438157773,16.04393008
5.70428925,12.97758641,-10.58582261,-9.265749353,19.13978841
5.71428125,9.336362668,-7.576001093,-10.02912558,15.65716514
5.72427325,6.910311379,-4.173787556,-6.650297978,10.45941533
5.73426425,5.931545366,-2.044132798,-3.966063466,7.42235601
5.74425625,4.580901993,-0.3800041133,-2.923438257,5.447527644
5.75424825,3.50672667,-1.872999998,-1.523806765,4.257610596
5.76424025,3.819308586,-4.848090219,0.4852651048,6.190846394
5.77423125,5.313244995,-8.48581557,1.414967131,10.11146726
5.78422325,6.856169086,-10.12155017,-0.9776008089,12.26411578
5.79421525,7.331158878,-10.07317148,-4.911630743,13.39174338
5.80420625,8.620751181,-10.19066309,-6.396217747,14.80130287
5.81419825,9.587089521,-10.84814273,-4.365330062,15.1211968
5.82419025,11.13867217,-12.20100132,-1.650293587,16.60294913
5.83418225,12.45372032,-13.38958824,-1.320442797,18.33357009
5.84417325,10.47870162,-13.5906085,-4.132789219,17.65184901
5.85416525,5.646708781,-11.32321263,-4.966568257,13.59291229
5.86415725,0.3905799723,-10.4286553,-3.285035335,10.94078887
5.874149125,0.3278428566,-8.379961086,-1.510271484,8.521276236
5.884140125,2.73226705,-6.650847616,0.6574813932,7.220203531
5.894132125,3.82719034,-7.175139377,2.564457223,8.526807833
5.904124125,3.707078006,-6.488158781,3.009836715,8.0559139
5.914115125,0.813692683,-4.405230292,-0.09579725465,4.480773016
5.924107125,-2.422520448,-1.895505347,-0.6343106318,3.140683973
5.934099125,-4.832271747,-2.181230709,5.807358692,7.863461872
5.944091125,-6.30223428,-1.720212838,8.85797155,11.00640491
5.954082125,-7.866523511,-1.056500067,7.220045993,10.72974598
5.964074125,-10.54068678,0.630393582,3.853629695,11.24072665
5.974066125,-11.08176707,3.369716467,1.031164666,11.62857906
5.984057125,-8.600454326,3.677004606,0.02936486319,9.3535576
5.994049125,-4.863473659,2.692104279,0.9236405101,5.635061071
6.004041125,-0.9558564026,1.801856925,0.7474912383,2.172347346
6.014033125,2.581864384,0.7687895751,0.6974278164,2.782708513
6.024024125,0.7651608662,-0.2279724133,0.1414368376,0.8108310252
6.034016125,-2.347707224,1.004651052,-0.4812176621,2.598581033
6.044008125,-1.725547838,3.103930694,-1.186909641,3.744416589
6.054000125,1.279208963,5.147133785,-1.195541593,5.436789629
6.063991125,5.293833409,11.33661328,2.376392933,12.7354119
6.073983125,6.254555499,11.6029446,3.951556524,13.76090792
6.083975125,3.692234264,7.094772906,4.407706588,9.132156033
6.093967125,1.564942073,3.790732951,4.730495111,6.260693571
6.103958125,-0.6838464155,0.1967576373,4.991627085,5.042092863
6.113950125,-2.270074181,-0.353888694,6.20794208,6.619442489
6.123942125,-4.253914291,0.5363878959,7.546027097,8.679056614
6.133933125,-6.41224555,3.075106845,7.559477447,10.37877037
6.143925125,-5.540016975,3.994356388,6.287776455,9.283469383
6.153917125,-3.539345947,4.209639174,5.362075678,7.681138411
6.163909125,-2.243710255,3.486361987,4.373857641,6.026573345
6.173900125,-2.702583075,0.4320232826,-0.8978440565,2.88040333
6.183892125,-0.8055157904,1.543924549,-3.486914549,3.897580246
6.193884125,3.438435284,9.157868809,13.72441618,16.85375323
6.203875125,2.742246785,8.353248666,10.18080118,13.45159446
6.213867125,0.2220284993,3.600750482,5.814374766,6.842635063
6.223859125,0.3469457833,0.8671818423,5.799875425,5.874600469
6.233851125,1.91146576,-1.219362565,5.881676218,6.303543571
6.243842125,2.666767417,-3.246392841,4.079829817,5.856255312
6.253834125,2.773127393,-4.425701979,0.6211503035,5.259553331
6.263826125,2.920799409,-5.165464221,-3.556569213,6.918256599
6.273818125,3.154139273,-5.157206783,-7.336642397,9.506403001
6.283809125,4.695147523,-4.186953732,-10.45052388,12.19788675
6.293801125,5.699735425,-4.284941372,-12.03254304,13.98677227
6.303793125,3.510947482,-6.181787485,-11.88179481,13.84623763
6.313785125,0.2038581305,-6.985600712,-12.54465154,14.35996023
6.323776125,-1.852539421,-6.704350809,-13.08668376,14.82030748
6.333768125,-3.262482625,-4.801679115,-9.679963771,11.28723234
6.343760125,-4.781174391,-0.8336924994,-4.465179455,6.594884329
6.353751125,-6.38919758,0.6618147647,-0.2556443614,6.428467822
6.363743125,-8.515671453,0.6530597287,1.69142758,8.706553541
6.373735125,-9.668220223,-0.1728857946,1.401389312,9.770786242
6.383727125,-7.671634644,-1.472849303,3.139697528,8.419083308
6.393718125,-4.613103194,-4.099588144,5.305533687,8.138552189
6.403710125,-4.803250846,-6.075212039,3.546126086,8.517888837
6.413702125,-4.652664578,-4.276079916,0.7818642417,6.367374562
6.423694125,-0.8872082636,-2.128423335,7.255298272,7.612928307
6.433685125,-1.852058049,-1.510601851,12.13632761,12.36941732
6.443677125,-5.742273334,0.9361813259,8.365427831,10.18972626
6.453669125,-5.983776205,3.294350535,6.589427294,9.490989156
6.463660125,-5.889653574,3.809066311,8.591965923,11.09138782
6.473652125,-6.925525249,3.570497573,8.617310679,11.61763299
6.483644125,-7.206074656,2.12220716,6.632395558,10.0209753
6.493636125,-5.701705352,0.2181204396,4.804542496,7.459265986
6.503627125,-3.464562398,-2.554801716,3.610628183,5.618437531
6.513619125,-0.3210277075,-5.425610354,3.4026474,6.412356496
6.523611125,2.382661002,-7.937779436,4.661890022,9.508871353
6.533602125,3.551122239,-7.814536502,5.775956805,10.34597153
6.543594125,4.305852184,-5.030008793,4.779531908,8.16610536
6.553586125,2.634094345,-2.603627136,3.084413273,4.81984777
6.563578125,0.8667913214,-0.4738495857,0.901758475,1.337545877
6.573569125,0.7055813201,0.495500071,0.1552171169,0.8760466158
6.583561125,0.7130388589,-1.038672491,0.7113474056,1.446817228
6.593553125,1.43477165,-3.151349275,1.276491323,3.690393209
6.603545125,0.8692545341,-2.231704459,1.881887766,3.045916907
6.613536125,0.665170628,-0.3948841077,0.9090267102,1.193614252
6.623528125,-0.5094389561,0.6055762446,-0.7405159485,1.083796341
6.633520125,-1.630906705,2.020424092,-0.1308407327,2.599824896
6.643512125,-0.7812261643,2.35775698,1.866605483,3.107015984
6.653503125,-0.7406296769,1.946504762,2.898196996,3.568887633
6.663495125,1.152176595,2.065739429,2.843607391,3.698769159
6.673487125,2.56099304,1.770120578,3.46910393,4.661190222
6.683478125,2.924888951,2.284559196,3.688918308,5.232810371
6.693470125,2.817071557,3.514092407,2.691452315,5.246775502
6.703462125,3.018577133,4.024336817,1.971219188,5.403036166
6.713454125,2.982389885,4.367284786,0.3677436715,5.301232049
6.723445125,2.926362157,4.59240025,-1.010829805,5.538547862
6.733437125,3.22660908,3.71184641,-1.011342021,5.021117665
6.743429125,5.576922846,2.858994924,-1.059617364,6.355997905
6.753420125,8.464436395,2.024084449,-2.997956343,9.204962986
6.763412125,7.16865423,-0.2864621115,-3.221022942,7.864264289
6.773404125,3.074701048,-3.11242319,-1.32265436,4.570599436
6.783396125,3.537375728,-3.780772219,-2.190641218,5.621936904
6.793387125,7.256090569,-4.378226096,-3.713607007,9.252599154
6.803379125,9.883638664,-3.057580985,-5.476536679,11.70587753
6.813371125,5.815225536,-4.468904132,-1.643101951,7.515832368
6.823363125,5.136636279,-6.001334224,0.4417043714,7.911772714
6.833354125,7.098418645,-6.799652238,-0.5282878943,9.84387657
6.843346125,7.228892831,-8.421465207,-3.025486788,11.50354459
6.853338125,6.618733538,-11.31958034,-4.619959931,13.90268185
6.863329125,8.977648852,-12.53899261,-5.212179966,16.27855444
6.873321625,9.468966994,-11.98241135,-4.153857906,15.82700393
6.883313625,6.170587728,-10.62678586,-1.980225654,12.44692831
6.893305625,4.773054948,-8.735058984,-1.467124879,10.0615985
6.903296625,3.362115963,-7.544152479,-0.530324918,8.276430686
6.913288625,1.707189627,-6.934614746,1.50955403,7.29946104
6.923280625,4.391793391,-4.821977139,-0.909094611,6.585268842
6.933272625,3.775641579,-4.28401108,-4.040313749,6.995166578
6.943263625,0.9184704021,-4.926478577,-4.344825046,6.632592535
6.953255625,-1.433397847,-5.233802385,-2.056189756,5.803036542
6.963247625,-2.230980574,-5.26460844,2.899855267,6.411126026
6.973238625,-2.532812384,-5.571307765,7.036087911,9.325295807
6.983230625,-4.587026366,-6.817300304,7.549552968,11.15850099
6.993222625,-6.119219354,-7.635464938,5.16271603,11.06339944
7.003214625,-4.640474595,-7.270630841,0.7692715319,8.659552874
7.013205625,-2.347561482,-5.902987565,-2.284540923,6.750958031
7.023197625,-2.021637097,-4.798125762,-2.497933743,5.774833362
7.033189625,-2.708345506,-3.982790011,-1.06441632,4.93261936
7.043180625,-2.744956677,-3.275503204,0.9517186935,4.378296115
7.053172625,-2.438474576,-2.681642441,2.476832018,4.389995591
7.063164625,-2.557667728,-2.298282611,3.379136623,4.821030127
7.073156625,-2.441891835,-1.373605682,3.769186838,4.696423929
7.083147625,-2.669541044,-0.05297986686,3.780117623,4.628017447
7.093139625,-3.212880402,1.571814598,3.793101658,5.213522973
7.103131625,-4.09036036,4.161271006,4.32754857,7.264633569
7.113123625,-3.691622938,5.543414792,4.717353202,8.161553082
7.123114625,-1.925711478,5.326631026,4.949622442,7.521976143
7.133106625,-0.06158543341,5.797542386,5.027513201,7.674058866
7.143098625,0.4177722294,6.564259123,4.820040249,8.154558202
7.153089625,-0.3137572796,6.923310324,4.801870903,8.431407572
7.163081625,-0.8043708325,7.26341947,4.964380814,8.834554414
7.173073625,-1.174791506,7.683589861,5.257638559,9.38405304
7.183065625,-1.630015444,8.149553307,5.419498259,9.92185118
7.193056625,-1.944079337,8.477033637,5.411739004,10.24336189
7.203048625,-2.343840899,8.946615924,5.362296118,10.69063826
7.213040625,-2.654257299,9.206565006,5.166322592,10.88562401
7.223031625,-2.739643604,9.273925515,4.836349595,10.8121052
7.233023625,-2.882704506,9.184277759,4.489786293,10.62163472
7.243015625,-2.833387335,8.81060501,3.958857358,10.066151
7.253007625,-2.803886963,8.283691358,3.303964527,9.348663338
7.262998625,-2.748051023,7.483841958,2.540837688,8.367528371
7.272990625,-1.32051311,6.545938627,1.197904453,6.784396986
7.282982625,1.081281736,4.828887963,-1.236047887,5.100504243
7.292973625,2.9716275,1.704539376,-5.136930978,6.174470371
7.302965625,3.782000719,-2.934587143,-9.072867835,10.25827773
7.312957625,5.538251116,-10.09836947,-9.575521975,14.97798092
7.322949625,8.18967924,-21.07859964,-13.48347113,26.32835359
7.332940625,6.717097154,-30.21135875,-16.82848311,35.2284464
7.342932625,2.347351714,-23.10258995,-12.57371221,26.40715738
7.352924625,-2.839792083,-6.871409268,-7.948349447,10.88379269
7.362916625,-8.706671337,3.895793383,-3.308014893,10.09585531
7.372907625,-11.77077723,9.362475749,-1.22571498,15.09004725
7.382899625,-10.24026736,8.631026493,3.298874233,13.79276133
7.392891625,-9.644034385,4.355575737,6.438610645,12.38685377
7.402882625,-9.148064198,-0.6269910872,9.83602011,13.44721116
7.412874625,-7.262664594,-9.220754444,8.523170507,14.50562115
7.422866625,-2.999293601,-18.70549781,-5.763391138,19.80171932
7.432858625,2.964215277,-21.37954413,-5.193977584,22.20020006
7.442849625,0.1133899368,-10.2185777,9.380407405,13.87170612
7.452841625,-6.191873347,3.082002466,6.419607779,9.436598899
7.462833625,-6.326095598,7.425090889,4.541678578,10.76003274
7.472824625,-3.542289435,9.503154495,8.084629333,12.96992642
7.482816625,-0.2889824441,10.54528503,14.74624635,18.13114251
7.492808625,-0.03618604224,10.24298398,17.70680624,20.45607532
7.502800625,-3.176128313,8.562790071,13.83474144,16.57737119
7.512791625,-6.011481482,5.259814893,7.048825486,10.65314522
7.522783625,-5.083560517,-0.6679058093,2.040315151,5.518294267
7.532775625,-2.493300117,-8.004921259,2.042752855,8.629492978
7.542766625,0.964405105,-13.90145818,3.735995703,14.42699832
7.552758625,5.060152359,-14.71492516,3.193221771,15.8849246
7.562750625,6.654899737,-10.0681382,1.631644185,12.17856149
7.572742625,4.634282978,-3.97849874,0.8346609445,6.164551065
7.582733625,1.810428944,0.8808058548,0.7913085182,2.163247809
7.592725625,-0.4978531003,3.101615782,0.1465185066,3.144733032
7.602717625,-1.716526169,4.50717065,-0.7397674318,4.879375494
7.612708625,-2.191419921,5.351993909,-1.470793422,5.96736067
7.622700625,-2.093649066,5.544654402,-1.449751632,6.101502983
7.632692625,-1.682749143,5.185134839,-0.5431700448,5.478348444
7.642684625,-1.206211811,5.201592413,0.6953836298,5.384706951
7.652675625,-1.194183431,3.796989471,1.606370473,4.292275528
7.662667625,-0.2268572031,2.275591321,2.060661707,3.07832856
7.672659625,0.837421415,1.157273321,2.180065359,2.606384686
7.682650625,0.6116479933,-0.07151846409,2.024654553,2.11623586
7.692642625,1.18649215,0.2124427933,1.528123618,1.946293234
7.702634625,1.655525091,1.57193622,0.8893346035,2.450033233
7.712626625,1.192985629,2.724164563,-0.04633984186,2.974295657
7.722617625,0.7002451511,3.621414542,-1.20756705,3.881134465
7.732609625,0.279583447,3.554369783,-2.185331946,4.18179234
7.742601625,0.4434554663,2.621385714,-2.71078204,3.796927058
7.752592625,0.4024942589,0.9671078342,-2.574913799,2.779834574
7.762584625,0.9989929935,-0.6550378418,-1.655569092,2.041560823
7.772576625,2.373899973,-1.771665412,-0.8283311874,3.075765266
7.782568625,4.409785858,-2.566063453,-1.157669469,5.231738865
7.792559625,6.900706742,-3.173349423,-2.713611216,8.065580322
7.802551625,8.549487655,-4.048433193,-4.299291316,10.39073897
7.812543625,8.654610068,-5.1988565,-4.516396971,11.06020913
7.822534625,7.794367701,-5.660301218,-2.907367769,10.06200602
7.832526625,6.962308913,-5.42004205,-1.215006974,8.906561805
7.842518625,6.720396738,-5.068573519,-1.396639618,8.532571245
7.852510625,6.980249925,-4.981251785,-3.113189176,9.122976774
7.862501625,7.045379137,-5.082203379,-4.533077616,9.798721908
7.872493083,6.969791011,-5.554726231,-4.780474187,10.11364938
7.882485083,7.208917572,-7.721241837,-3.400449432,11.09725752
7.892476083,6.892537597,-9.539417172,-0.8632421346,11.80053988
7.902468083,5.629839563,-9.028369355,0.5897677124,10.65618941
7.912460083,4.508042762,-7.95510532,0.2006569992,9.145841319
7.922452083,3.735926414,-7.242895743,-1.045678625,8.216454752
7.932443083,2.948928317,-6.302408527,-2.45774963,7.379503012
7.942435083,2.307926131,-5.444952943,-4.242317508,7.278138047
7.952427083,1.33122097,-5.175434309,-3.992792843,6.670806866
7.962418083,-0.205769366,-5.443312799,-1.609154917,5.679909754
7.972410083,-2.026886143,-6.351488886,3.226981255,7.406962031
7.982402083,-3.988931926,-7.762655327,7.631529762,11.59356037
7.992394083,-5.830141783,-9.318483637,7.776200402,13.46454541
8.002385083,-5.835310137,-9.302145932,3.621992247,11.56285394
8.012377083,-3.442996989,-7.694879665,-0.7790045147,8.465946454
8.022369083,-1.429630486,-6.523611619,-2.338545807,7.076026312
8.032360083,-0.9436423731,-6.386205559,-1.716848935,6.67994406
8.042352083,-1.331253422,-6.177019665,-0.9514763264,6.390079406
8.052344083,-2.165893316,-5.373585337,0.4046542203,5.807775673
8.062336083,-3.198338961,-4.125348637,2.123765004,5.63544597
8.072327083,-3.382949593,-2.752780836,3.317157015,5.479569412
8.082319083,-3.258183167,-0.9647554994,3.916112749,5.18482881
8.092311083,-3.306270084,0.7056074864,3.989019342,5.228917585
8.102302083,-3.553614615,1.997524057,4.378988865,5.982793885
8.112294083,-2.970405432,2.925585939,4.506063479,6.13897138
8.122286083,-2.160919821,3.646414313,4.757513925,6.371801202
8.132277083,-1.815569962,4.694981462,5.255367501,7.277226998
8.142269083,-1.457642596,5.3843524,5.349020015,7.728388437
8.152261083,-1.457328308,6.611042696,5.233605334,8.556887057
8.162253083,-1.918153513,7.892674014,5.372945067,9.738693685
8.172244083,-2.439643873,8.547554566,5.697355608,10.55804964
8.182236083,-2.785353336,8.857372211,5.959825425,11.03316613
8.192228083,-2.689444381,8.654562705,6.019720209,10.87987123
8.202219083,-2.285107372,8.800970553,5.92197172,10.85120028
8.212211083,-2.508620699,9.582853214,5.758000005,11.45769687
8.222203083,-3.466834041,10.35757537,5.511289605,12.23407614
8.232195083,-4.013770899,10.70442285,5.261360312,12.58478994
8.242186083,-4.008282994,10.61536742,4.992539835,12.39668552
8.252178083,-4.097781062,10.24561757,4.734527936,12.00750781
8.262170083,-4.097157164,9.861677692,4.321951031,11.52035783
8.272161083,-3.522563853,9.470527616,3.262170383,10.61796144
8.282153083,-2.134438073,8.535205831,1.434197161,8.914173319
8.292145083,0.1533798487,6.574165476,-1.067432314,6.66202588
8.302137083,2.240772467,3.39594883,-4.710992893,6.224707523
8.312128083,3.399179417,-1.244412037,-9.474464546,10.14240901
8.322120083,5.533212571,-8.10441865,-11.08041753,14.80113832
8.332112083,12.04912925,-20.36042824,-14.6006577,27.80121866
8.342103083,11.3334359,-33.40174462,-17.59259258,39.41601993
8.352095083,3.80685811,-29.48628764,-12.77003364,32.35748888
8.362087083,-0.6642643826,-13.01422506,-10.18892998,16.54163218
8.372078083,-6.866073099,-1.848743994,-6.594639502,9.697942272
8.382070083,-12.24080449,3.405048267,-1.003702049,12.74515854
8.392062083,-13.86096153,4.408827499,6.161838539,15.79659041
8.402054083,-15.25741696,1.924242657,8.983538167,17.80998147
8.412045083,-14.12769981,-5.286428495,8.363464336,17.24777562
8.422037083,-6.215585561,-13.54899737,-1.779194579,15.01247371
8.432029083,2.96367821,-14.92873093,-5.472654712,16.17406397
8.442020083,3.897411015,-7.001308088,10.24097254,13.00329366
8.452012083,-3.39640696,4.905750782,14.37445816,15.56364412
8.462004083,-6.999108365,9.219996645,4.492444145,12.41683979
8.471996083,-5.202495223,8.254243026,5.484806396,11.1929257
8.481987083,-1.181796982,7.997140954,15.30311997,17.30711958
8.491979083,0.6894728257,9.316552302,20.39009935,22.42832297
8.501971083,-2.870693448,8.358177869,14.13513279,16.67039283
8.511962083,-6.938425961,4.518226565,4.075826521,9.228677475
8.521954083,-4.596720173,-2.726860714,-0.1913258663,5.348103522
8.531946083,0.2382738551,-10.70518065,3.576870161,11.28944938
8.541938083,5.522249041,-16.06010752,6.658590499,18.2416862
8.551929083,10.43205838,-17.01387727,5.458174667,20.69037294
8.561921083,10.7108618,-12.09304535,2.08604564,16.28852028
8.571913083,6.490615781,-4.309476873,0.7969810483,7.831657738
8.581904083,2.195851233,1.569099736,1.939648609,3.32356335
8.591896083,-0.6702027418,5.040080622,1.976608128,5.455141069
8.601888083,-2.867630677,6.303798995,0.5206289189,6.944943624
8.611879083,-3.949783941,6.130663524,-0.6827339096,7.324749417
8.621871083,-3.884813773,5.763364826,-0.6977776261,6.985345073
8.631863083,-3.53477284,5.058891115,-0.7402550896,6.215703977
8.641855083,-2.606862693,4.251223403,-1.029682909,5.092040888
8.651846083,-1.749714672,3.377597929,-0.9596953189,3.923096265
8.661838083,-1.126725493,1.852156429,-0.5035762453,2.225664576
8.671830083,0.2291491655,0.5584868628,0.5446833408,0.8130786294
8.681821083,0.7249790195,-1.052744985,1.348568489,1.858091373
8.691813083,1.444233469,-1.139593095,1.386806356,2.303847782
8.701805083,2.013620711,0.3150216669,1.203410191,2.366876234
8.711797083,1.862576167,2.397252583,1.378365315,3.334051719
8.721788083,1.044424251,4.000650331,1.447363629,4.380740413
8.731780083,0.2666179772,4.319074493,0.7687292757,4.395046566
8.741772083,-0.08711050317,3.063287868,-0.7294641993,3.150149015
8.751763083,0.08467440695,1.391501085,-2.614439807,2.962893945
8.761755083,0.3943675062,0.4510091919,-3.674166368,3.722691703
8.771747083,1.034145869,0.4455636799,-2.783941818,3.003051235
8.781738083,2.660733383,0.5318387622,-1.342765274,3.027436735
8.791730083,5.373602879,0.04800739467,-1.124702868,5.490252194
8.801722083,7.878540709,-1.390533371,-1.197964825,8.089505948
8.811714083,8.837473551,-3.510718564,-1.038942486,9.565849941
8.821705083,8.187806962,-5.337948312,-0.9238811231,9.817710087
8.831697083,6.846892478,-6.252577971,-1.541130164,9.399454775
8.841689083,5.49815325,-6.319030992,-2.622291448,8.777029923
8.851680083,4.793498568,-5.694973453,-3.588363156,8.263576785
8.861672083,5.728186222,-4.968737574,-4.217915908,8.677055093
8.871664125,7.405689828,-4.929928434,-4.216524855,9.845177401
8.881655125,8.115992628,-5.507656145,-3.933083416,10.56753319
8.891647125,8.455478461,-7.343681275,-3.392625273,11.70190911
8.901639125,8.106184509,-9.344588531,-1.766370612,12.49606447
8.911631125,6.437050023,-8.731241922,-0.6882751697,10.86940298
8.921622125,4.777003572,-7.125267305,-1.287962683,8.674563112
8.931614125,4.327601195,-6.548113791,-2.030512294,8.107336585
8.941606125,4.256756623,-5.717247836,-1.828310314,7.358642427
8.951597125,3.93032353,-4.564957513,-2.333526703,6.460002091
8.961589125,2.966092233,-4.500552771,-3.426461356,6.386964522
8.971581125,1.271563582,-5.362078017,-2.187555642,5.929093885
8.981572125,-0.2675972396,-6.057354058,2.415438008,6.526675052
8.991564125,-2.023291859,-6.966587321,6.768007107,9.921339075
9.001556125,-4.192299256,-8.549427429,7.091893737,11.87278565
9.011548125,-5.973314366,-9.632598401,3.84746556,11.96956255
9.021539125,-5.563905775,-9.07522017,0.3150842321,10.64969233
9.031531125,-3.623096201,-7.341032487,-1.556657592,8.333112678
9.041523125,-2.118891204,-6.168590904,-2.026506951,6.829930021
9.051514125,-1.390392745,-5.675390543,-1.174431975,5.960078881
9.061506125,-1.616402102,-5.169597033,-0.006020293236,5.416412603
9.071498125,-2.278128574,-4.272177485,1.264343441,5.003991866
9.081489125,-2.640311105,-3.03164683,2.954080006,4.988858979
9.091481125,-2.662818207,-1.383514958,4.171062169,5.138333783
9.101473125,-2.752911229,0.1853111279,4.506757544,5.284290303
9.111465125,-3.219043075,1.556860344,4.138350213,5.469185948
9.121456125,-3.524536411,2.267330959,3.740114482,5.617081354
9.131448125,-3.213967692,2.799985993,3.729531898,5.663825392
9.141440125,-2.414146358,3.610363889,4.252127675,6.078109888
9.151431125,-1.836868445,3.870845068,5.179247278,6.721765362
9.161423125,-1.453324573,4.69748641,5.919970218,7.695750663
9.171415125,-1.730585214,6.120634965,5.989469054,8.736752091
9.181407125,-1.803605682,7.598712848,5.906875963,9.792068936
9.191398125,-2.310781911,8.307266162,5.864054464,10.42772837
9.201390125,-2.515639989,8.16299781,5.825273976,10.33909061
9.211382125,-1.925655929,8.187843214,5.568690552,10.08757859
9.221373125,-1.627017868,8.781123934,5.451947967,10.46322423
9.231365125,-2.159355544,9.408754706,5.345663128,11.03465431
9.241357125,-2.941068197,9.508350915,5.128761833,11.19655381
9.251348125,-2.974023104,9.660134109,5.001241077,11.27720784
9.261340125,-3.221875174,9.480191894,4.991383256,11.18786954
9.271332125,-3.598819439,8.823349602,4.805165225,10.67204818
9.281323125,-4.007060049,8.118779996,4.378546523,10.05697711
9.291315125,-4.183462359,7.356463289,3.7701642,9.264612648
9.301307125,-2.926632006,6.125240232,2.420196472,7.207016981
9.311299125,-0.7994618026,4.152644024,0.3311140814,4.241842536
9.321290125,0.8583680418,1.514393186,-3.443827294,3.858772972
9.331282125,2.285788427,-2.532885182,-8.682291956,9.328586693
9.341274125,3.688376856,-8.347478049,-10.59279483,13.98183879
9.351265125,7.585139122,-18.34454919,-14.17070491,24.38986876
9.361257125,10.31447204,-29.20822213,-18.88544704,36.27903917
9.371249125,4.32281291,-24.35852743,-13.07714578,27.98278599
9.381240125,-0.6522817567,-7.566174263,-7.970622076,11.00923616
9.391232125,-5.674345061,3.383046949,-3.657985075,7.551427238
9.401224125,-9.936042581,8.767749597,-1.140866911,13.30037415
9.411216125,-10.95672787,7.366291873,5.143535408,14.16926597
9.421207125,-12.10558763,1.773882092,8.150844373,14.70129836
9.431199125,-12.45938628,-2.798708376,6.661447449,14.40291488
9.441191125,-9.297020262,-7.894643941,2.220550895,12.39721077
9.451182125,-4.859722378,-15.59652155,-6.370869482,17.53443367
9.461174125,2.860155596,-18.71302435,-5.965319468,19.84799251
9.471166125,3.574741482,-9.835355866,12.5853049,16.36773964
9.481157125,-3.254678638,2.205309543,10.75872126,11.4545365
9.491149125,-4.67932642,6.138815712,4.219275386,8.796785712
9.501141125,-3.092681236,6.986011187,7.546765015,10.73884033
9.511132125,-0.3192337087,7.873207464,15.63592009,17.50917768
9.521124125,-0.6435895783,8.069831784,17.77389836,19.5306901
9.531116125,-4.596657608,6.437587382,11.64410432,14.07682343
9.541108125,-7.875279717,3.069033342,3.509904339,9.15196289
9.551099125,-6.058767915,-2.311444108,0.4903054047,6.503217811
9.561091125,-2.889525576,-7.899752653,2.8430215,8.87908899
9.571083125,0.2046580296,-11.16038522,2.099194566,11.35793559
9.581074125,2.765545893,-11.4937572,1.094099126,11.87231029
9.591066125,3.458777455,-7.18377513,1.573574902,8.126863145
9.601058125,1.612531684,-2.297310219,1.908033883,3.393889505
9.611049125,-0.2322762929,1.543100676,1.358095211,2.068703598
9.621041125,-2.05783414,3.351840944,0.2253027208,3.939578705
9.631033125,-2.631848137,4.280594552,-0.3436186445,5.036684237
9.641025125,-2.657132667,4.418240347,-0.4276161631,5.173399014
9.651016125,-1.411115278,3.911933452,0.1343527166,4.160831685
9.661008125,0.6822784846,3.864383309,0.7918977714,4.003256721
9.671000125,2.318317803,3.512613062,1.781252507,4.570110332
9.680991125,3.90653998,2.541795754,3.472182489,5.811869881
9.690983125,5.106678069,1.702134417,4.810257565,7.219002723
9.700975125,4.064909185,0.0899319309,5.096440179,6.519607115
9.710966125,3.815085142,-0.2557425946,4.253575737,5.719544166
9.720958125,4.691831275,0.8216408032,2.353828236,5.313085891
9.730950125,4.061387115,1.313430816,-0.191482864,4.272777959
9.740942125,2.673666254,2.229707635,-2.573667757,4.329417178
9.750933125,0.4838462779,2.917368847,-4.308726091,5.225922764
9.760925125,-1.409463878,3.851574984,-4.999795645,6.46677468
9.770917125,-2.867432456,3.900751821,-4.326810944,6.493021377
9.780908125,-2.847488188,2.756869209,-2.873333466,4.895361276
9.790900125,-1.192198155,1.011759512,-1.770676502,2.362263538
9.800892125,1.144255372,-0.9268678808,-0.4735157096,1.546810122
9.810883125,3.581271653,-2.252999434,0.7335355425,4.294134079
9.820875125,5.33708234,-2.688397729,0.77188743,6.025590465
9.830867125,6.401750382,-2.81922918,-0.7299456444,7.033013704
9.840858125,6.979459966,-3.588484778,-2.730260285,8.309296339
9.850850125,7.523331129,-4.496993571,-3.36636075,9.389134526
9.860842125,8.010730467,-4.834417675,-2.579610282,9.705554394
9.870834125,8.229996961,-5.019182673,-2.343812686,9.920609991
9.880825708,7.940986633,-5.419351494,-3.172062159,10.12376499
9.890817708,6.841716523,-5.808953227,-4.270121019,9.939162746
9.900809708,5.54642377,-6.186172897,-4.797714118,9.594248928
9.910800708,4.98530566,-6.550881279,-4.356063395,9.313571084
9.920792708,5.554851362,-8.236003806,-3.430697663,10.50989147
9.930784708,5.912946543,-10.29423599,-2.306311861,12.09352331
9.940775708,5.237837548,-9.468868176,-1.983032318,11.0012192
9.950767708,5.02029072,-7.345890938,-2.746913155,9.311872233
9.960759708,5.461341519,-6.053711243,-3.10374066,8.723925555
9.970750708,5.537680428,-4.97789256,-3.380632634,8.177652222
9.980742708,5.151439674,-4.471244772,-3.382023686,7.613635449
9.990734708,3.735212176,-4.955438082,-2.087498088,6.547199772
10.00072671,1.458816571,-5.771571978,1.079260354,6.050123287
10.01071771,-0.1612600681,-6.386611356,6.391265155,9.036762678
10.02070971,-1.605325429,-8.027220785,9.224844571,12.33333291
10.03070171,-3.766545358,-9.791937951,8.300824285,13.37806401
10.04069271,-3.614359292,-9.848034968,3.963103606,11.21399019
10.05068471,-0.8415722072,-8.518046007,-0.2330851456,8.56269118
10.06067671,0.7678395487,-7.79451739,-1.493001001,7.973276046
10.07066771,0.2125288935,-7.797038709,-0.831419102,7.844121294
10.08065971,-0.6815849318,-7.174863389,0.3901050322,7.217714638
10.09065171,-1.639240303,-6.020224823,1.643517834,6.45223733
10.10064371,-2.956143781,-4.3590139,2.908331391,6.016492309
10.11063471,-3.868297728,-2.741716735,3.549884384,5.923041204
10.12062671,-4.473145702,-0.9250160676,3.679898686,5.865691906
10.13061871,-4.540543633,0.3428731245,3.793306018,5.926488759
10.14060971,-4.530254288,1.326329189,4.911770491,6.812330173
10.15060171,-3.706741791,2.987689801,5.831465592,7.528095112
10.16059371,-3.12493477,4.87021316,6.215316589,8.492017066
10.17058471,-2.836843917,6.456163402,6.179177288,9.376137863
10.18057671,-2.87750487,7.554989709,5.636308338,9.855246088
10.19056871,-3.367857929,8.269583196,5.337829614,10.40292739
10.20055971,-4.031107893,8.31652172,5.322418107,10.66501284
10.21055171,-4.666125453,8.952019336,5.321032902,11.41160673
10.22054371,-4.504337381,9.011666198,5.092076987,11.28842022
10.23053471,-3.954796466,9.239928634,4.753747734,11.1182199
10.24052671,-3.989955482,9.527654328,4.543399121,11.28443252
10.25051871,-4.37141409,9.6421662,4.403550095,11.46611894
10.26051071,-4.139288984,9.373619372,4.565748056,11.21804389
10.27050171,-3.736099491,8.805689256,4.77494506,10.69105715
10.28049371,-3.786448111,8.296280413,4.492112315,10.16585122
10.29048571,-4.055645149,7.849581204,3.774257836,9.607767944
10.30047671,-4.167333107,7.235300794,2.803880239,8.807836693
10.31046871,-3.631059524,6.101017556,1.295919867,7.21709199
10.32046071,-1.389064989,4.500284969,-1.013814516,4.817663979
10.33045171,0.8976344338,2.226965291,-3.739803702,4.44423826
10.34044371,3.051558938,-0.9527225143,-6.717919858,7.439767426
10.35043571,5.426323714,-5.695281601,-7.599187642,10.93749854
10.36042671,10.44126657,-14.6868632,-10.64750956,20.93068222
10.37041871,13.13359363,-27.63975798,-18.21775816,35.61368017
10.38041071,5.130773275,-27.9021857,-12.52272799,31.01089353
10.39040271,-0.4461670395,-12.86375047,-7.628954648,14.96248944
10.40039371,-5.619702246,-0.8232616514,-3.858205726,6.866189955
10.41038571,-10.89432404,6.066701417,-1.293312301,12.53649948
10.42037771,-12.23182785,8.589984301,3.578676074,15.36920184
10.43036871,-14.50762148,5.682556306,5.42836907,16.49938538
10.44036071,-16.36091987,-0.0344213891,3.664062379,16.7662231
10.45035271,-12.89250942,-8.257347313,-0.1248170042,15.31065521
10.46034371,-6.148664178,-15.72222967,-6.045688278,17.93167376
10.47033571,1.504964697,-15.17116117,-3.989184526,15.75889093
10.48032771,2.298684314,-6.303975581,12.09738866,13.83368607
10.49031871,-0.8272783231,2.763578305,12.23950992,12.57487008
10.50031071,0.2278966919,5.936630105,5.54539349,8.126924564
10.51030271,2.470210924,6.696590384,9.138723271,11.59579785
10.52029371,3.783438549,7.170806006,17.27521039,19.08318003
10.53028571,1.142840565,6.528059596,17.89008722,19.07817778
10.54027771,-4.39218837,5.019718278,9.855793054,11.90065322
10.55026971,-7.300442285,2.633908111,-0.2126147014,7.76396384
10.56026071,-4.179937365,-2.051542389,-0.3587009525,4.670050206
10.57025271,-1.304143537,-6.534047145,6.16424116,9.077027682
10.58024471,0.7773213936,-10.18858616,6.601575469,12.16520921
10.59023571,3.864169009,-11.4128598,3.656137648,12.59176372
10.60022771,5.217023215,-9.3350985,2.269788252,10.93221542
10.61021971,4.555536479,-4.57445456,1.778326706,6.696341763
10.62021071,2.354978676,0.5830475074,1.784367903,3.011617136
10.63020271,-0.1651232139,3.662704656,1.50381031,3.962841975
10.64019471,-2.123292549,5.147268856,0.248851724,5.573569332
10.65018571,-3.154988582,5.537030218,-1.044442597,6.457826021
10.66017771,-3.228255948,5.630925391,-1.217892063,6.603954747
10.67016971,-2.541544324,5.064960524,-1.021852391,5.758251034
10.68016071,-1.45998309,4.655292901,-0.8262875855,4.948338488
10.69015271,-0.9947069845,3.793234389,0.07299314101,3.9221674
10.70014471,-0.2197376333,2.905677339,1.718903646,3.383175309
10.71013671,0.2476193503,1.40944619,3.334738423,3.628819953
10.72012771,0.4705182807,-0.2257183117,4.106653919,4.139679048
10.73011971,1.728794212,0.05950360537,4.123029047,4.471201027
10.74011171,2.158537519,0.6563838708,2.981805748,3.739156259
10.75010271,1.971237022,1.656686348,0.8885866716,2.723962431
10.76009471,0.4825753856,1.841944851,-2.048018273,2.796429631
10.77008671,-0.6762436464,1.613522787,-4.167826905,4.520126366
10.78007771,-0.9785848953,1.328984994,-4.32666184,4.630748556
10.79006971,-0.2630779266,1.418947915,-2.99737396,3.326691125
10.80006171,0.6638718152,0.9184373653,-1.11612354,1.590592575
10.81005271,2.686845294,-0.3150392085,0.4467804855,2.741897178
10.82004471,5.593825393,-1.813992822,0.7467882568,5.927828032
10.83003671,8.240036046,-2.952657963,-0.1925409177,8.755195891
10.84002771,9.331527021,-4.086719007,-2.023044814,10.38611473
10.85001971,8.776849619,-5.324056497,-3.667187423,10.9007766
10.86001171,7.423175926,-6.098634231,-3.967875518,10.39427325
10.87000371,6.09420555,-6.154856964,-3.413123857,9.309727171
10.87999471,5.519105578,-5.674643853,-3.357642551,8.598597138
10.88998671,6.032295231,-5.374016862,-4.191004098,9.101272347
10.89997871,6.77003726,-5.519371042,-4.978015351,10.05373055
10.90996971,6.884869559,-6.006679164,-4.726300904,10.28686267
10.91996171,6.937397436,-7.735242995,-3.263667855,10.89095934
10.92995371,6.551407528,-9.526990669,-1.218860874,11.62626826
10.93994471,5.275745047,-8.738240454,-0.4713154024,10.21824203
10.94993671,4.486778778,-7.230107297,-1.617090173,8.661444219
10.95992871,4.835461111,-6.395754063,-2.354535164,8.35650585
10.96991971,4.871779921,-5.34464045,-1.869167148,7.469485054
10.97991171,4.519878404,-4.531321989,-2.048786597,6.720097192
10.98990371,3.37996839,-4.963744637,-2.323567725,6.439092647
10.99989471,1.208081824,-6.000576425,-1.562565472,6.317277101
11.00988671,-1.283600953,-6.584634331,1.69621528,6.919695583
11.01987871,-3.323509722,-7.568712539,6.872458259,10.74996786
11.02986971,-5.0114509,-9.05213127,8.522329677,13.40469409
11.03986171,-5.875319125,-9.755938398,5.085726911,12.47246275
11.04985371,-4.463146963,-8.924639164,-0.2983274277,9.982878557
11.05984571,-2.196608009,-7.686484233,-2.908001608,8.506679726
11.06983671,-1.563935767,-6.968217525,-2.20564912,7.474412258
11.07982871,-2.265674736,-6.118357474,-0.5124264447,6.544475613
11.08982071,-3.381267641,-4.790441936,0.8502415815,5.924881058
11.09981171,-3.722686563,-3.304484929,2.447467594,5.546901253
11.10980371,-3.083791714,-1.579221851,3.570016055,4.974809305
11.11979571,-2.895942602,0.2385090959,3.919380466,4.879027914
11.12978671,-3.160796328,2.291533754,4.056219345,5.629802461
11.13977871,-2.733125421,3.822763998,4.085822336,6.227153709
11.14977071,-2.035554932,4.484914978,4.150449564,6.440821207
11.15976171,-1.923902057,4.616738116,4.754423087,6.900739732
11.16975371,-1.022459916,4.528251616,5.246710113,7.005601615
11.17974571,-1.029201318,5.822954385,5.150254444,7.841630823
11.18973671,-1.32676276,6.761626625,5.066138738,8.552523356
11.19972871,-1.595033891,7.389165012,5.003356014,9.065178657
11.20972071,-2.185964469,7.703859819,5.320708966,9.614459978
11.21971171,-2.578129182,8.127573039,5.624934919,10.21489532
11.22970371,-2.890005047,8.722191017,5.735892853,10.83186097
11.23969571,-3.318345754,9.184325121,5.578912654,11.24666674
11.24968671,-3.526076276,9.428000817,5.293664424,11.37291943
11.25967871,-3.633393733,9.802796815,5.138546564,11.64907877
11.26967071,-3.773462614,9.816434276,5.110323808,11.69259644
11.27966271,-3.688008189,9.398035591,4.920700943,11.23110748
11.28965371,-3.418616439,8.551110842,4.573643844,10.28234667
11.29964571,-3.160296976,7.633379821,3.831992366,9.107147191
11.30963771,-2.808355697,6.657183659,2.481306016,7.639491838
11.31962871,-1.305773302,5.192662545,0.3722004193,5.367245231
11.32962071,0.8655677184,3.321978044,-3.318402764,4.774572494
11.33961271,2.356979739,0.2491469353,-8.379783915,8.70851343
11.34960371,3.27134905,-4.075673617,-11.17529796,12.33694146
11.35959571,6.201325371,-10.83346856,-9.704341983,15.81122167
11.36958771,10.47324265,-22.16424281,-13.27529155,27.87787361
11.37957871,6.904206886,-29.88393105,-15.43012383,34.33374621
11.38957071,1.604823007,-21.51060596,-10.52785916,24.00244663
11.39956271,-2.209127482,-6.655972701,-5.957497063,9.201846993
11.40955371,-6.380147844,3.748889691,-1.228351489,7.501287077
11.41954571,-9.750906869,10.78885664,0.8008007419,14.56437071
11.42953771,-9.966228247,12.35185949,3.580360072,16.27000665
11.43952871,-8.310794372,7.427643784,6.75679741,13.03432033
11.44952071,-7.092379056,2.4225529,7.68411728,10.73388381
11.45951271,-5.65494283,-2.279114853,9.243175592,11.07289655
11.46950371,-6.457410613,-11.06638772,1.831470149,12.94285022
11.47949571,-4.242611916,-22.02026799,-10.58017186,24.79580599
11.48948771,2.899395676,-23.13281538,-1.778485897,23.38154517
11.49947971,-1.763610434,-7.671439347,11.86650317,14.23991576
11.50947071,-4.394083453,4.383739436,8.189269935,10.2756646
11.51946271,-3.31264121,7.883469912,6.495860149,10.73866326
11.52945471,-1.041049092,9.193843219,11.22279372,14.54515848
11.53944571,0.902319223,9.774329646,16.81149461,19.46735861
11.54943771,-1.39849874,8.192844338,15.92409076,17.96260459
11.55942971,-5.221544282,5.609556742,9.328701646,12.07295846
11.56942071,-6.218643655,2.668984973,2.470417038,7.204024572
11.57941271,-4.210417731,-3.011802549,1.75426673,5.465896434
11.58940471,-1.860323966,-8.042972599,4.594970101,9.447960823
11.59939571,0.1884680944,-12.53272089,3.188154281,12.93324943
11.60938771,3.786075643,-11.90654958,1.599162903,12.59593639
11.61937971,5.198030874,-7.335884013,1.29611034,9.083755899
11.62937071,3.872317396,-1.936922929,1.472349951,4.573218433
11.63936271,1.340967547,1.897351313,1.264710792,2.645303263
11.64935471,-1.078350162,3.428156464,0.09726967491,3.595074019
11.65934571,-1.942071695,4.269825734,-1.006371156,4.797482379
11.66933771,-2.018645662,4.639199025,-1.365694399,5.240440735
11.67932971,-1.680747641,4.544019803,-0.8622900617,4.921033708
11.68932071,-0.6766755364,4.263818305,-0.1748633047,4.320719095
11.69931271,0.345675768,4.104738371,0.6440965319,4.16931999
11.70930471,0.7050661804,3.637552273,1.491376791,3.994134398
11.71929571,0.7907366605,2.22238926,1.975889359,3.077079337
11.72928771,1.322053851,1.025959475,1.954195604,2.572799971
11.73927971,1.719615399,0.4255977774,1.705766122,2.459237413
11.74927171,1.993262899,0.5655350965,1.505855082,2.561352466
11.75926271,2.105186208,1.436479622,0.7610489579,2.659789125
11.76925471,1.468645886,1.955630511,-0.8940486288,2.603984329
11.77924671,1.195181404,2.117196681,-2.741145462,3.663994926
11.78923771,0.4800871029,1.735309764,-3.591686713,4.017710424
11.79922971,0.0885139811,1.114171155,-3.334195801,3.516542866
11.80922171,0.7822691613,0.6934458625,-2.507805889,2.716965694
11.81921271,1.924922689,0.1913583183,-1.03898941,2.195778759
11.82920471,3.61498816,-0.3599861705,0.3980972989,3.654615014
11.83919671,6.102892758,-0.7826065457,0.5368755537,6.176245493
11.84918771,8.133731911,-1.620155869,-0.3531835198,8.301038395
11.85917971,8.231151202,-3.305033398,-1.534440511,9.001644491
11.86917171,7.130426888,-4.937228099,-2.033999573,8.908218855
11.87916271,6.136565119,-5.908969266,-1.783899541,8.703771988
11.88915471,5.424746135,-6.602670652,-2.185417754,8.82038441
11.89914671,5.436357536,-6.735829294,-3.398577738,9.299231699
11.90913771,6.337650865,-6.161870114,-4.494961079,9.916609143
11.91912971,7.345540105,-5.493297722,-4.563081726,10.24475447
11.92912171,8.04093426,-5.7564043,-3.62695361,10.53316698
11.93911271,8.622921082,-7.76884285,-1.792690976,11.74408056
11.94910471,8.269383806,-8.843357604,-0.3730868572,12.11308697
11.95909671,6.803110281,-7.642629531,-0.8227576214,10.26494159
11.96908771,5.968979825,-6.946644223,-2.568705225,9.512246456
11.97907971,5.832747302,-6.661458558,-3.327594295,9.458797757
11.98907171,5.376124198,-5.540597604,-3.071611379,8.308774258
11.99906271,4.253109714,-4.806728185,-3.576714333,7.347548129
12.00905471,1.945638789,-5.420690507,-3.814470892,6.907936309
12.01904671,-0.3897128302,-6.240581823,-1.050993744,6.340451516
12.02903771,-1.705207713,-6.536126415,5.597393364,8.772656058
12.03902971,-3.271218072,-7.59957122,9.364605889,12.49600712
12.04902171,-5.620664113,-9.61801486,7.968331722,13.69643696
12.05901371,-6.008977119,-10.25618933,2.783798561,12.20847083
12.06900471,-3.339598628,-8.63194626,-2.280345107,9.532228965
12.07899671,-1.093907045,-6.99677825,-3.482092935,7.891546725
12.08898871,-0.7983473964,-6.404720183,-1.430116536,6.610826915
12.09897971,-1.58965533,-5.774013775,0.3191632497,5.997341438
12.10897171,-2.150237542,-4.800495054,1.308073597,5.420270361
12.11896371,-2.600409413,-3.759826323,2.749714849,5.334731
12.12895471,-2.4199677,-2.287254762,4.054059676,5.246253699
12.13894671,-2.059490363,-0.6217736167,4.545216435,5.028627589
12.14893871,-2.665162941,0.8726688695,4.430312801,5.243311546
12.15892971,-2.753114712,2.128480053,4.399695318,5.609579917
12.16892171,-2.495967324,3.512856891,4.546775888,6.264438314
12.17891371,-1.850757629,3.879952106,5.218900756,6.761379833
12.18890471,-1.270391508,2.625866436,5.862014955,6.547693369
12.19889671,-1.23621117,3.752374046,6.21159659,7.36155291
12.20888871,-1.738350316,4.988207633,6.28851145,8.212761622
12.21887971,-2.257380168,5.865549597,6.538496291,9.069309293
12.22887171,-2.750406574,6.502648766,6.668095148,9.711471063
12.23886371,-3.278996039,7.51339554,7.001898072,10.78097881
12.24885471,-3.773897647,8.657415562,7.068708943,11.79660094
12.25884671,-4.038216353,9.669819437,6.820004641,12.50300214
12.26883871,-4.001720079,10.7091322,6.439813417,13.12137466
12.27882971,-3.830012791,11.65749094,5.98576952,13.65267482
12.28882171,-3.693445807,12.51766547,5.334506641,14.09930679
12.29881371,-3.715546528,12.79786405,4.962668749,14.22036186
12.30880471,-3.632246217,12.49089926,4.57159878,13.78823021
12.31879671,-3.195068321,11.85353872,3.694277866,12.82039511
12.32878871,-1.756820063,10.52386317,1.920106922,10.84089126
12.33877971,0.8318564737,8.161977471,-1.67701741,8.373902843
12.34877171,3.030689056,4.49491664,-6.06740893,8.136510485
12.35876371,2.156786716,-0.2539276189,-9.895956409,10.13144419
12.36875571,3.367191347,-9.000685712,-10.697115,14.37979799
12.37874671,9.589238958,-27.31361199,-20.45516951,35.44574535
12.38873871,9.922924937,-41.48370762,-20.52190729,47.33403761
12.39873071,5.621283917,-29.96292459,-10.94916976,32.39228305
12.40872171,0.2492406918,-8.715355037,-6.538786313,10.89840634
12.41871371,-6.116020342,3.571731336,-1.25938354,7.193678924
12.42870571,-9.678852215,10.69114733,2.294952914,14.60300039
12.43869671,-9.29240564,10.96219151,8.525331053,16.70927032
12.44868871,-8.757609356,4.82059895,10.10944293,14.21740948
12.45868071,-7.058545312,-1.234181748,8.68226155,11.25735014
12.46867171,-3.557372328,-6.971000215,6.319495261,10.05911339
12.47866371,-1.863188517,-14.87976518,-5.2842966,15.89976962
12.48865571,1.883958704,-19.13135988,-1.126509365,19.25687552
12.49864671,-5.113167894,-9.557957523,4.980707994,11.92922839
12.50863871,-12.00077629,1.715992903,-0.9601876545,12.16080686
12.51863071,-7.662608297,5.75063953,7.137886181,11.94716871
12.52862171,-1.657238033,8.919808779,11.86052731,14.93256625
12.53861371,1.671878292,10.14625349,18.37856244,21.05975295
12.54860571,-0.3009357244,8.066091321,20.04351851,21.60775383
12.55859671,-5.341811568,4.834497197,12.68043676,14.58426516
12.56858871,-6.933574526,1.392156558,4.200900218,8.225577076
12.57858071,-3.310309048,-3.453442163,1.756514984,5.096052752
12.58857171,0.3843078102,-8.844765614,3.845437161,9.652199657
12.59856371,2.873629335,-12.3646532,3.139817103,13.07672917
12.60855571,4.702793342,-12.5115563,1.518743514,13.45220756
12.61854671,5.210480765,-7.849344392,1.624272016,9.560312587
12.62853871,3.883097323,-2.229114727,1.884377218,4.857805553
12.63853071,1.474812799,1.694442989,1.441120265,2.668901919
12.64852271,-1.197100753,3.109666228,0.3035372968,3.34592426
12.65851371,-2.605839137,3.66376534,-0.5078854971,4.52454658
12.66850571,-2.862267903,3.812198664,-0.8533110774,4.84288922
12.67849771,-2.263595466,3.991883016,-0.5936819116,4.627251091
12.68848871,-1.151001305,4.219694046,-0.2305476002,4.379928543
12.69848071,0.0502056554,3.900230834,-0.09873951875,3.901803514
12.70847271,0.9848031168,3.56859372,0.2123159087,3.708069088
12.71846371,1.34228551,2.980410018,1.090684644,3.445891359
12.72845571,0.9994518538,1.580183718,1.951094826,2.702342615
12.73844771,0.9864018917,0.9608273399,2.273979828,2.658413461
12.74843871,0.9903228883,0.7927619898,2.220602936,2.557398755
12.75843071,1.355770504,1.535726168,1.617333418,2.610045192
12.76842271,1.164282086,2.590803022,0.4690707294,2.87886096
12.77841371,0.5449202992,3.093498092,-0.980809103,3.290692188
12.78840571,-0.006374780685,2.475362613,-2.344455734,3.409389006
12.79839771,-0.3340265796,1.241558595,-3.267250444,3.511120472
12.80838871,-0.1771434447,0.2581019461,-3.551129841,3.564901059
12.81838071,0.6615890622,0.1637869424,-3.04517027,3.120510892
12.82837271,1.992916451,0.28329409,-1.940763965,2.796164568
12.83836371,4.272204382,-0.07103782296,-1.056161075,4.401392151
12.84835571,6.974789211,-0.971071077,-0.4499362278,7.056423044
12.85834771,8.952440336,-2.69039046,-0.1544561018,9.349237695
12.86833871,9.580148876,-4.50855644,-0.3649106956,10.59431421
12.87833033,9.246451787,-5.519873902,-0.4958577745,10.78015554
12.88832233,8.363466675,-5.825131888,-1.116507702,10.25311298
12.89831433,7.524794102,-5.848024322,-2.806388109,9.934673068
12.90830533,7.089303421,-5.466199971,-3.995252182,9.803040605
12.91829733,7.849911572,-5.272539019,-3.657553259,10.13895829
12.92828933,9.167637752,-6.469442428,-2.199964603,11.4341205
12.93828033,9.183405939,-7.530037301,-0.9118288422,11.91082861
12.94827233,7.840258988,-7.195574811,-0.747440806,10.66792509
12.95826433,5.749273621,-7.363858847,-1.290749466,9.431150432
12.96825533,3.939142885,-8.559783432,-1.926763392,9.617648166
12.97824733,2.910167709,-8.995026777,-2.684802276,9.827906495
12.98823933,2.480337717,-7.612326336,-3.974576427,8.938503522
12.99823033,1.854367553,-5.53851658,-5.424331568,7.971023641
13.00822233,0.5123815674,-4.454286677,-5.450770338,7.057910594
13.01821433,-0.6158217359,-4.525287078,-1.842064719,4.924496114
13.02820533,-1.582020036,-5.032861649,5.082203379,7.325385652
13.03819733,-3.076298215,-6.446938834,9.234097205,11.67455276
13.04818933,-4.89715596,-7.92390984,7.767097456,12.12840824
13.05818033,-6.022394725,-8.293480182,3.165006616,10.72699019
13.06817233,-5.31546226,-7.507686319,-1.748847238,9.363650974
13.07816433,-3.727407605,-6.270266967,-4.154011688,8.394380764
13.08815533,-2.638521565,-5.640055819,-3.653019912,7.219181405
13.09814733,-2.495321791,-5.605586482,-1.534402943,6.324841741
13.10813933,-2.408685059,-5.304029199,0.498312728,5.846606283
13.11813033,-2.387423706,-4.591778106,2.052810066,5.567606963
13.12812233,-2.390404032,-3.646827126,3.013081043,5.300192156
13.13811433,-1.885981256,-2.056423645,3.45762146,4.44307885
13.14810533,-2.006551427,0.3119249815,3.257351401,3.838474172
13.15809733,-2.117198727,1.768769286,3.263367601,4.273247399
13.16808933,-1.805908023,2.6896771,3.339038465,4.652402021
13.17808133,-1.626305093,3.496312194,3.598887559,5.274567174
13.18807233,-1.252994287,4.097645699,4.567265993,6.262636315
13.19806433,-0.7624734128,3.875923374,5.554639108,6.816022544
13.20805633,-0.4885540174,4.17479854,6.159081577,7.456669079
13.21804733,-0.7379243895,5.082498078,6.629511126,8.386103797
13.22803933,-0.8787338208,6.406690695,6.761024362,9.355709979
13.23803133,-1.137809913,7.867341537,6.513940324,10.27721231
13.24802233,-1.740901164,9.076170927,6.018283548,11.02847915
13.25801433,-2.369617765,9.829702778,5.72224779,11.61818681
13.26800633,-2.951679724,10.20074369,5.49984485,11.95892464
13.27799733,-3.456803142,10.24827688,5.215977733,12.00762635
13.28798933,-3.825595512,10.32286747,4.841066836,12.02633369
13.29798133,-3.963173772,10.67156852,4.276894433,12.16063102
13.30797233,-3.870612348,10.79569672,3.866684774,12.10289051
13.31796433,-3.7746955,10.28071489,3.873586827,11.61663031
13.32795633,-4.047222235,9.265330108,4.134519995,10.92339716
13.33794733,-4.304942942,8.248556024,3.616211105,9.98239415
13.34793933,-2.967023695,6.8816226,2.435708258,7.879887939
13.35793133,-1.03502054,4.350789791,-0.04011540771,4.472387345
13.36792233,0.5085789768,0.6934762681,-4.606575947,4.686160888
13.37791433,2.095697054,-4.340575874,-8.888941913,10.11166818
13.38790633,4.149874491,-12.42408897,-9.822435858,16.37252856
13.39789733,9.713739628,-25.52009787,-18.74588804,33.12160098
13.40788933,9.627290883,-33.32454032,-21.11311692,40.60755378
13.41788133,2.146427935,-20.82485387,-12.76647503,24.52069689
13.42787333,-3.411629893,-4.058202721,-6.856374323,8.667069672
13.43786433,-7.886528006,5.161964663,-1.606252652,9.561550645
13.44785633,-10.56882007,10.75573451,-0.2981349081,15.08226332
13.45784833,-9.810364866,11.45856398,6.397274923,16.38496487
13.46783933,-9.097575245,7.020540749,11.86226043,16.51566197
13.47783133,-9.284781455,2.016552066,10.90036422,14.45999962
13.48782333,-7.812664223,-3.090011982,5.651213475,10.12532024
13.49781433,-5.212690428,-12.13930618,-9.008661314,15.99033692
13.50780633,4.527641167,-22.12489339,-8.987552866,24.30610106
13.51779833,2.604158063,-18.45245721,12.62352581,22.50840332
13.52778933,-3.950189445,-6.913968228,4.335037392,9.066394128
13.53778133,1.161767783,-0.2822217107,8.019005447,8.107638487
13.54777333,3.593902808,4.513192112,15.01789513,16.08795246
13.55776433,1.391227874,7.450777123,14.84401063,16.66716071
13.56775633,-3.637774467,6.802853588,9.988287452,12.62054303
13.57774833,-7.633914841,4.928145034,5.070824112,10.40560072
13.58773933,-6.741373624,3.673271744,4.074811737,8.691555346
13.59773133,-4.594563427,1.538083765,4.88225053,6.878378079
13.60772333,-3.553391251,-1.68571602,3.166037773,5.048962573
13.61771433,-2.041567039,-5.967729691,1.063423463,6.396300735
13.62770633,0.123036591,-8.854567886,1.76747559,9.030087508
13.63769833,3.210983273,-8.206656046,3.647907984,9.537654308
13.64768933,4.465361304,-5.810902689,4.385918108,8.54062757
13.65768133,4.282974368,-3.051305754,3.655384526,6.404386956
13.66767333,2.817448995,-0.6300561976,2.01336241,3.519746844
13.67766433,1.250836811,0.8585981297,0.704198015,1.672626175
13.68765633,0.1581940806,2.043197243,0.01148173884,2.049344327
13.69764833,-0.5671202767,2.835161673,-0.4906714404,2.932665269
13.70763933,-1.135425053,3.237938352,-0.5251351487,3.471196011
13.71763133,-1.111767365,3.537999333,0.09588739313,3.709805972
13.72762333,-0.4662305175,3.70473795,0.9183297765,3.8452287
13.73761533,0.2008737847,3.224038936,1.710877758,3.655390546
13.74760633,0.7745458665,2.511420053,2.230455494,3.447039845
13.75759833,1.105109871,1.602486752,1.908270403,2.725936087
13.76759033,1.819089547,1.227832257,0.8271050262,2.345370238
13.77758133,2.208748291,1.341764084,-0.2259229825,2.594212995
13.78757333,1.827594176,2.016515813,-1.152560538,2.955474969
13.79756533,1.060594726,3.046564831,-1.958142475,3.773690554
13.80755633,-0.02259978086,3.90264398,-2.189275308,4.474825937
13.81754833,-1.021717905,3.877808517,-1.78101511,4.387860662
13.82754033,-1.192705986,3.057306751,-1.784548582,3.735543572
13.83753133,-0.229087185,1.448146572,-2.662666472,3.039638494
13.84752333,1.336264485,-0.220950492,-3.828804172,4.061300688
13.85751533,3.20809738,-0.9266515338,-4.05281802,5.251276584
13.86750633,5.383377085,-1.274585423,-3.120120465,6.351414689
13.87749833,7.90745636,-2.257896477,-1.867316505,8.432842552
13.88749033,10.05379381,-3.622796824,-0.3111161654,10.6911281
13.89748133,11.0124682,-4.657392637,1.407197789,12.0393508
13.90747333,10.9616559,-5.101035506,1.451311523,12.17722335
13.91746533,10.69244074,-5.229897614,-0.7573642619,11.92701633
13.92745633,10.04195203,-5.205342232,-4.059177452,12.01720891
13.93744833,8.66946258,-4.942047958,-6.160512391,11.72754588
13.94744033,7.790457083,-5.275496541,-5.51771511,10.90721162
13.95743133,8.082420255,-7.397404908,-2.593132553,11.25928297
13.96742333,7.795323136,-9.047333629,0.6109784871,11.95803509
13.97741533,6.166650798,-8.804382988,1.8038767,10.89948224
13.98740633,4.226389693,-8.829911347,0.722293101,9.815875486
13.99739833,2.617822421,-8.543938063,-1.493202292,9.059885481
14.00739033,1.512542542,-7.482766655,-5.098614174,9.180166025
14.01738133,0.5282988578,-6.12367844,-6.857501666,9.208901478
14.02737333,-0.4809735408,-5.714124838,-4.421391996,7.240943681
14.03736533,-1.127354872,-6.487472318,1.748798121,6.812967118
14.04735633,-2.069836865,-7.290173405,7.171431073,10.43361282
14.05734833,-3.409010925,-8.25000321,8.136960744,12.07866046
14.06734033,-4.634550489,-8.639052966,5.431754608,11.20786565
14.07733133,-4.599047072,-7.691639138,2.362093714,9.267795494
14.08732333,-2.830858122,-6.218125007,0.273455565,6.837661461
14.09731533,-1.028350402,-5.505946419,-0.8028357191,5.658400455
14.10730633,-0.3592865512,-5.50468459,-0.6716392565,5.557134023
14.11729833,0.1899687275,-5.236854631,0.2736523238,5.247439389
14.12729033,0.6561075899,-4.661944694,1.663130711,4.993016048
14.13728233,0.4562018848,-3.805280238,3.038060056,4.890612104
14.14727333,-0.7576987957,-2.89198316,3.757469895,4.801692834
14.15726533,-2.693837102,-2.09965211,3.989635931,5.251903672
14.16725733,-3.409348894,-0.9081298935,3.798291354,5.184146699
14.17724833,-3.087015284,0.1743750805,3.445795759,4.629641287
14.18724033,-3.105843903,1.470881715,3.211310425,4.703432153
14.19723233,-2.867018181,2.637421119,3.404831043,5.173843623
14.20722333,-2.204001813,3.465289791,3.966290338,5.709405956
14.21721533,-2.572326698,3.704026929,4.824936123,6.604293203
14.22720733,-2.511598978,4.691496522,5.193992786,7.436116601
14.23719833,-2.759941629,5.859570819,5.533649358,8.518986042
14.24719033,-3.593021048,6.834138531,6.022453197,9.792098459
14.25718233,-3.953547501,8.125966809,6.270908407,10.99937119
14.26717333,-4.441088342,8.782464116,5.670387665,11.35817934
14.27716533,-4.683450168,8.942177303,5.295859469,11.3992705
14.28715733,-4.687583565,9.264611485,4.926174522,11.49233053
14.29714833,-4.754509041,9.520027805,4.500453076,11.55380299
14.30714033,-4.601323101,9.770397978,4.219775615,11.59479871
14.31713233,-4.0536799,9.864248128,4.031171335,11.40114267
14.32712333,-3.697658726,9.738796701,3.783118999,11.08281691
14.33711533,-3.756650408,9.574224477,3.423346544,10.83962629
14.34710733,-3.785724226,9.449965882,2.724110476,10.53823235
14.35709833,-3.169002603,8.981561224,1.376304464,9.623161305
14.36709033,-1.707051487,7.430196093,-1.313822872,7.736146929
14.37708233,-0.1077537326,4.152169231,-5.782899789,7.119975432
14.38707333,1.849355759,-0.9111394554,-11.37013771,11.55553215
14.39706533,5.968067075,-8.701428139,-12.76787134,16.56355079
14.40705733,13.23435519,-20.85526407,-14.26765526,28.52465921
14.41704833,13.35831031,-29.75738794,-15.51506516,36.12013066
14.42704033,8.172409489,-22.63048108,-11.55728369,26.69265362
14.43703233,2.993128589,-7.875353976,-7.73049798,11.43418637
14.44702333,-2.929080528,2.055319691,-3.081486157,4.722224974
14.45701533,-7.844563124,7.478615132,-0.4020352525,10.84566675
14.46700733,-9.538682177,6.141535252,4.986925339,12.39251134
14.47699833,-10.5658988,-0.7708454561,7.257076995,12.84124553
14.48699033,-9.658106879,-7.401090408,5.750299222,13.45812427
14.49698233,-2.930767742,-13.68252088,7.021492091,15.65573787
14.50697333,0.4490562584,-16.54874881,-2.185216756,16.69844037
14.51696533,0.7860336719,-11.919783,2.382935675,12.18102861
14.52695733,-8.001956136,-1.477639343,5.484919832,9.81320873
14.53694833,-13.85705208,4.589430449,1.046809477,14.63477278
14.54694033,-9.173562736,6.292223262,4.436922786,11.97633544
14.55693233,-1.36485737,7.908545111,14.76623564,16.80623802
14.56692333,1.189617048,9.66925635,21.10276735,23.24298812
14.57691533,-2.727024728,8.270863736,16.54667071,18.69856044
14.58690733,-7.808016856,4.325306455,6.414379199,10.99170886
14.59689833,-6.944762589,-0.6132559776,0.1467697906,6.973331462
14.60689033,-3.525152708,-7.41265737,1.627835309,8.368036729
14.61688233,-0.4008833144,-12.76267901,3.267978423,13.18052981
14.62687333,4.031921825,-14.6079176,2.031136776,15.28964247
14.63686533,6.428881463,-10.74620004,1.712230512,12.63895033
14.64685733,4.730807353,-4.132837751,2.933660067,6.9330547
14.65684833,1.379094024,0.346929338,3.112530195,3.422002996
14.66684033,-0.8393275342,3.027419878,1.77199885,3.606899187
14.67683233,-2.054101277,4.312299324,0.250105294,4.783075389
14.68682333,-2.52271015,4.246650295,0.0242962043,4.939503572
14.69681533,-2.024115147,3.419454052,0.4855060101,4.003176768
14.70680733,-0.6903243995,3.005575265,0.71818302,3.166357102
14.71679833,0.5834992048,2.997118437,0.6133892941,3.114391862
14.72679033,1.312511487,2.778103373,0.5942151046,3.129478606
14.73678233,1.884391982,2.822632259,1.085197617,3.56312221
14.74677333,1.913417269,1.91427257,1.51172861,3.100149755
14.75676533,2.101356428,1.003827764,1.440704235,2.738429789
14.76675733,2.180253493,0.4468301868,0.9403697596,2.416083151
14.77674833,2.031124643,0.7040445256,0.2036012185,2.15930532
14.78674033,1.586739616,1.493066052,-0.5131265026,2.238367184
14.79673233,0.5773002791,2.650106653,-1.207834194,2.969040977
14.80672333,-0.5364380358,3.139380024,-1.769691831,3.643526023
14.81671533,-0.5506141716,2.881134236,-2.401667231,3.791057365
14.82670733,0.312900297,1.859636772,-2.611704479,3.22135931
14.83669833,2.012355812,1.062926742,-2.643582914,3.488254549
14.84669033,3.090018999,0.4716235507,-2.30678607,3.884830519
14.85668233,3.485027945,-0.04264315903,-1.406497001,3.758386892
14.86667333,4.156164341,-0.5410756087,-0.2003240003,4.196021276
14.87666858,5.731013936,-0.8123104012,0.5175296022,5.811385877
14.88666058,7.739339554,-1.610910251,-0.0987987949,7.905831378
14.89665158,9.097163601,-3.022257371,-1.250435253,9.667265049
14.90664358,9.466849133,-4.604415693,-1.633461208,10.65317192
14.91663558,9.568415269,-5.627561488,-1.982508261,11.27627412
14.92662658,9.825696266,-5.843224343,-2.45192975,11.69185774
14.93661858,10.20961392,-5.655002471,-2.900323629,12.02610271
14.94661058,10.1981756,-5.398769295,-2.992085446,11.92065731
14.95660158,9.711355133,-5.047869698,-2.50048576,11.2269246
14.96659358,9.462902262,-5.64679298,-2.030425024,11.20515131
14.97658558,8.74486418,-7.204380133,-1.718423005,11.45987436
14.98657658,6.410750417,-7.243902048,-1.906146694,9.859271424
14.99656858,4.008731768,-6.437567502,-2.792232585,8.081384073
15.00656058,2.881060269,-6.196259344,-3.863194571,7.849739513
15.01655158,2.261461817,-5.703886364,-4.127057194,7.394669044
15.02654358,1.420952341,-4.826066682,-3.633324151,6.205728769
15.03653558,-0.3023191756,-4.723052775,-1.031858146,4.843898805
15.04652658,-1.264023013,-5.991222634,3.673761156,7.140659903
15.05651858,-1.433682899,-7.683914967,7.670407898,10.9513996
15.06651058,-2.948792953,-9.069636664,7.393549254,12.06723911
15.07650258,-5.101564094,-9.651222952,3.422236158,11.44044409
15.08649358,-5.653855832,-9.338628464,-1.362712319,11.00150227
15.09648558,-4.565366525,-7.969350307,-3.920501962,9.986163
15.10647658,-2.832364657,-6.428227159,-3.107341375,7.68114343
15.11646858,-1.813582639,-5.266998782,-0.4379565986,5.587679674
15.12646058,-1.229250791,-4.289954774,1.276275415,4.64151359
15.13645158,-1.095598425,-3.261571044,2.21194204,4.090338515
15.14644358,-1.643171533,-2.384796844,2.86993945,4.077232041
15.15643558,-2.300116298,-1.363398197,3.412817463,4.335517577
15.16642658,-2.485335039,-0.2455380338,4.071017479,4.776019524
15.17641858,-2.653391619,0.5830089158,3.953286423,4.796755155
15.18641058,-3.235148353,0.9778795749,3.342759925,4.753575207
15.19640158,-3.585411481,1.574210202,3.083094434,4.983852379
15.20639358,-2.831534645,2.157766417,3.394248168,4.918786942
15.21638558,-1.94178752,2.808266235,3.559853594,4.9324898
15.22637658,-2.060663023,3.945542663,4.247899261,6.152908834
15.23636858,-1.911552738,4.099271225,4.717517509,6.535520629
15.24636058,-2.067385128,4.314104944,4.849469578,6.811970194
15.25635158,-2.511839299,4.880853338,4.853705008,7.327381407
15.26634358,-2.88926362,6.195106273,5.150305899,8.558787114
15.27633558,-3.038311194,7.490066904,5.196549189,9.609191465
15.28632658,-3.565232155,8.882280765,4.891166072,10.74845558
15.29631858,-3.929472468,9.380393372,4.183094569,10.99685473
15.30631058,-3.472073731,9.555785283,3.535498479,10.76420354
15.31630158,-3.131200939,10.10360975,3.673481074,11.19740204
15.32629358,-3.127994326,10.27983079,3.890714491,11.42790133
15.33628558,-2.766187332,9.827877277,3.731190169,10.87017683
15.34627658,-2.067893689,9.057458083,3.313581735,9.863749548
15.35626858,-1.000541336,8.320189093,2.631156119,8.783485188
15.36626058,0.41188306,7.183631288,1.457598596,7.341580198
15.37625158,1.538715557,4.943982217,-0.8440280378,5.246235704
15.38624358,2.463402134,1.477059299,-5.275836264,6.00703775
15.39623558,4.56401728,-3.867572966,-10.93076857,12.46074139
15.40622658,11.1209972,-11.36082894,-13.66302158,20.96242285
15.41621858,14.33022397,-19.09316353,-13.38031222,27.36671277
15.42621058,9.177451719,-23.01174994,-11.40269968,27.27247359
15.43620158,3.516824811,-18.00489963,-10.09433489,20.93896045
15.44619358,-0.5676810612,-7.79451739,-6.937650036,10.45025125
15.45618558,-5.166022046,0.9455941737,-1.472840533,5.454465267
15.46617658,-10.43059774,6.655225427,1.054188078,12.41775774
15.47616858,-13.3844462,8.070745704,5.408655767,16.5388601
15.48616058,-15.23276393,5.074028971,8.280249687,18.06503257
15.49615158,-16.17498309,1.912752879,6.914395659,17.69456326
15.50614358,-15.96184506,-1.914840919,6.065774049,17.18257048
15.51613558,-15.02543102,-11.19176138,-7.519864315,20.18830006
15.52612658,-2.159351013,-20.8774063,-10.47277137,23.45650935
15.53611858,1.16124548,-18.07345122,12.8198718,22.18889909
15.54611058,-3.129376608,-7.495170354,9.957377901,12.84990083
15.55610158,-0.3730364981,-1.416458171,7.467882568,7.610176084
15.56609358,2.962350892,2.750691626,14.24959204,14.81191077
15.57608558,1.415926951,5.739046841,15.93811706,16.99897301
15.58607658,-3.172041986,5.555638397,12.62630206,14.15452126
15.59606858,-7.231962619,4.485044201,6.723909745,10.84563816
15.60606058,-7.210157182,3.813117846,2.387229871,8.498535212
15.61605158,-4.737392779,2.107037144,2.729092304,5.859218435
15.62604358,-3.088979949,-0.748778649,4.822465966,5.775694295
15.63603558,-1.667008146,-4.090056013,3.991306188,5.952982398
15.64602658,0.5009482142,-6.652135758,2.471125721,7.113952599
15.65601858,2.006284063,-6.977731529,3.013688861,7.861058045
15.66601058,2.703839641,-6.189125741,3.433465151,7.576589548
15.67600158,3.839129477,-3.915180995,2.731658939,6.126134012
15.68599358,3.142223233,-1.888754151,1.325265727,3.898369959
15.69598558,1.373773204,0.1291977382,0.08284452081,1.382319821
15.70597658,0.07718839947,2.089800721,-0.530467517,2.157457043
15.71596858,-0.3955841656,3.413480537,-1.121343935,3.614657443
15.72596058,-0.3857817106,4.284378285,-0.6735208905,4.354119338
15.73595158,-0.3722467585,4.873282948,0.7164862311,4.939717286
15.74594358,-0.4719441243,5.286353651,2.027053666,5.681303789
15.75593558,-0.3155259161,4.754368123,2.511823511,5.38635593
15.76592658,0.2958254041,3.247474576,1.87826717,3.763175701
15.77591858,1.438559038,1.476792666,1.109350711,2.341159474
15.78591058,1.6993336,-0.3545967919,0.5485933739,1.820557129
15.79590158,1.713400393,-0.6793534881,0.168823003,1.850881756
15.80589358,1.679165677,0.6249252659,-0.1009293741,1.794523808
15.81588558,0.9309062603,1.968104961,-0.7689281541,2.308955199
15.82587658,0.238011644,2.632429935,-1.824410806,3.211668055
15.83586858,-0.03594663531,2.477196885,-2.707379546,3.669836586
15.84586058,0.07265370101,1.571681281,-3.332212425,3.684983074
15.85585158,0.1786078799,0.679036569,-4.070150337,4.130268175
15.86584358,0.3813080424,0.4350299209,-4.046656809,4.08779625
15.87583558,2.481006053,0.5890695548,-2.806515579,3.791955125
15.88582346,6.336228238,0.07155588627,-1.446914271,6.499728412
15.89581546,9.669793124,-1.516405798,-0.4782613099,9.799648947
15.90580746,11.06258352,-3.460916074,0.5124621128,11.60264244
15.91579846,10.75723958,-4.78722012,0.8642921484,11.80604425
15.92579046,10.1843902,-4.899351005,-0.05295589328,11.30169228
15.93578146,9.570324969,-4.349096437,-1.886569047,10.68011716
15.94577346,8.782915521,-3.657397723,-3.724224381,10.21694721
15.95576546,7.68447513,-3.290881382,-5.107004929,9.796048062
15.96575646,7.039666992,-3.676853748,-5.380848164,9.593210714
15.97574846,6.802969948,-4.316356122,-4.278679004,9.122413294
15.98574046,6.73139652,-5.486496241,-2.349184523,8.996221876
15.99573146,6.617550062,-7.757097548,-0.5937408954,10.21357232
16.00572346,5.617938725,-8.094394183,-0.3453693008,9.858992477
16.01571546,4.202014697,-7.355710167,-2.070978388,8.72079991
16.02570646,3.643108882,-7.33272944,-4.109406788,9.161243776
16.03569846,3.561498416,-6.409385092,-4.373967569,8.537920151
16.04569046,3.36616633,-5.113135149,-3.220566275,6.917172395
16.05568146,2.279319798,-4.806749235,-0.9696776855,5.407440408
16.06567346,0.05366135985,-5.450239996,2.179886434,5.870255567
16.07566546,-2.858660171,-6.907857302,5.550428528,9.31115929
16.08565646,-6.524800358,-9.479401935,7.084571854,13.5138166
16.09564846,-9.396130568,-11.59256813,4.742895302,15.65790412
16.10564046,-8.973109658,-11.93751526,-0.2890348864,14.93668332
16.11563146,-5.109018125,-11.09072266,-2.909176898,12.55266926
16.12562346,-1.026170998,-9.383512861,-2.478446435,9.759407629
16.13561546,0.8721258824,-8.099494709,-1.26559606,8.244037329
16.14560646,0.3690777138,-6.921467866,-0.8187470162,6.979490129
16.15559846,-1.360541979,-5.973494461,-0.03021051675,6.126550679
16.16559046,-2.743497797,-4.964742756,1.473122515,5.860506867
16.17558146,-2.723253274,-2.77137966,2.933744267,4.868624964
16.18557346,-2.457843478,-1.18279057,4.065558518,4.895789432
16.19556546,-3.020656111,0.5530904675,4.233147905,5.229704924
16.20555646,-3.420592213,2.451662679,3.868074949,5.716039257
16.21554846,-2.803438189,3.803165885,3.940980373,6.1526143
16.22554046,-2.822898892,4.453516599,4.721370239,7.077704796
16.23553146,-2.550763044,4.36299293,5.390855674,7.389412988
16.24552346,-2.563355023,5.396146819,5.617906566,8.200613614
16.25551546,-2.818823968,6.893817553,5.671747727,9.361581666
16.26550646,-3.32140297,8.546326066,5.617072753,10.75280955
16.27549846,-3.775743613,9.050479431,5.440509059,11.21456894
16.28549046,-2.916977961,8.796812013,5.254206828,10.65360744
16.29548146,-2.600916367,10.0829106,5.175363557,11.62816581
16.30547346,-3.471962049,11.10501443,5.240000433,12.76062187
16.31546546,-3.570450503,11.43093355,5.701375569,13.26348529
16.32545646,-3.046124536,11.85104196,6.084192778,13.66541152
16.33544846,-2.960342374,12.07293093,6.491036196,14.0232963
16.34543946,-3.36434346,11.64392189,7.006281729,13.99956097
16.35543146,-3.999097311,10.68611171,6.9655395,13.36804037
16.36542346,-4.418047096,9.974466974,6.054133412,12.47644432
16.37541446,-3.799479216,8.773354738,4.406632747,10.52740271
16.38540646,-1.569009104,6.566095149,2.953723618,7.368845112
16.39539846,0.3948120042,4.009632239,0.3780458808,4.046720388
16.40538946,1.242991309,0.9657927954,-4.198815686,4.48417621
16.41538146,2.164181836,-4.662213666,-9.483333603,10.7867296
16.42537346,8.165067725,-15.58815536,-14.29744799,22.67324276
16.43536446,18.0934639,-33.8874354,-29.68894044,48.55064262
16.44535646,12.6099322,-39.70161195,-18.69851624,45.66029885
16.45534846,0.893193035,-21.1450357,-10.47579672,23.61467013
16.46533946,-4.581857428,-2.708772937,-7.100859273,8.874292689
16.47533146,-9.640657618,7.373264093,-0.7058407903,12.1575291
16.48532346,-15.95517456,12.17821122,1.186246566,20.10680493
16.49531446,-14.97004736,10.15759358,10.07475023,20.70699441
16.50530646,-12.08889851,4.07186474,11.43423723,17.13077145
16.51529846,-10.16261751,1.370096768,5.991353027,11.87654288
16.52528946,-7.571214563,-0.8723227143,1.65510877,7.798950052
16.53528146,-5.69937816,-7.962183375,-6.875471914,11.96458898
16.54527346,2.511424146,-16.66499496,-3.007508354,17.11941631
16.55526446,1.002814295,-18.71249108,11.61394789,22.04646785
16.56525646,-2.353608673,-12.53666425,7.756975341,14.92910214
16.57524846,0.9617181632,-3.930051634,9.595919986,10.41402362
16.58523946,0.6807929995,2.658369938,11.19742265,11.52877634
16.59523146,-1.342453178,6.770144849,8.875362339,11.24318009
16.60522346,-3.889010905,7.89586367,7.377637226,11.48471157
16.61521446,-6.446151214,7.117374149,7.192507946,11.99758521
16.62520646,-7.070004686,6.69480406,6.167067704,11.52554084
16.63519746,-6.108011411,5.457862426,5.294671315,9.753440931
16.64518946,-4.920575228,1.684647149,5.802965094,7.792592667
16.65518146,-3.461541726,-2.544628145,5.222309682,6.762390253
16.66517246,-1.970249573,-7.417796488,2.833286471,8.181265204
16.67516446,0.9835679656,-10.52448531,2.237007738,10.80446207
16.68515646,4.551294616,-10.76898664,3.205314105,12.12268099
16.69514746,6.903405232,-7.575245633,2.83949446,10.63504015
16.70513946,6.258284268,-3.039955139,1.098228722,7.043689059
16.71513146,3.548368493,0.5346062493,-0.6939031148,3.654890469
16.72512246,1.12587538,3.069049714,-1.79258558,3.728273673
16.73511446,0.06242929626,4.859884638,-2.260482116,5.360238382
16.74510646,-1.125730516,5.415421581,-1.318381069,5.686140056
16.75509746,-1.778715692,5.880100978,0.3067355776,6.150894548
16.76508946,-2.361396433,5.788312556,1.66475843,6.469325776
16.77508146,-2.033586467,5.377307675,2.443411088,6.246692685
16.78507246,-1.238719187,4.403488407,2.737007972,5.330698642
16.79506446,-0.5505324568,2.699463585,2.389800307,3.647099551
16.80505646,0.445042693,1.549934902,1.785656045,2.406019266
16.81504746,1.42182153,0.974458369,0.9233683223,1.955442311
16.82503946,1.775686396,0.6898194194,-0.0874971503,1.906978962
16.83503146,1.769487617,1.100388683,-1.189700297,2.399443368
16.84502246,1.350026492,0.9739578474,-2.148541704,2.717976613
16.85501446,1.367946746,0.9215673798,-2.916560762,3.350655371
16.86500646,1.395987946,1.149896473,-2.893512207,3.412251037
16.87499746,1.742586916,1.397337191,-2.5542053,3.39309963
16.88498958,2.845236133,1.045014966,-2.63279714,4.014853137
16.89498158,5.118266666,-0.1170039546,-2.983639435,5.925575741
16.90497258,7.713311843,-2.119742559,-2.704258887,8.444021804
16.91496458,9.292011538,-4.269302409,-1.851733675,10.39217682
16.92495658,9.482202752,-5.486538341,-0.5269564833,10.96776892
16.93494758,8.781653692,-5.729633993,0.006020877957,10.48552257
16.94493958,7.877675321,-5.516623435,-1.33237331,9.709074169
16.95493058,6.90934191,-4.894256326,-3.97610489,9.354258961
16.96492258,6.336729929,-4.275062501,-5.686451721,9.52712122
16.97491458,7.324448029,-4.628513823,-5.359342105,10.1878961
16.98490558,8.473291419,-6.887085069,-3.140961696,11.361965
16.99489758,8.467455313,-8.626018353,-0.6951247443,12.1074023
17.00488958,6.97918047,-8.160142615,0.4569324213,10.74735664
17.01488058,5.509229046,-8.582394031,0.3531613004,10.20459773
17.02487258,4.419240221,-9.392749708,-0.5497447637,10.39498199
17.03486458,3.37800928,-8.486832401,-2.644823109,9.50959306
17.04485558,2.515221621,-7.131206907,-4.847947547,8.98237425
17.05484758,1.093491015,-6.512803041,-5.959564054,8.895433085
17.06483958,-0.6972418749,-6.536213538,-4.913152188,8.206539957
17.07483058,-1.784497712,-6.580739501,1.15734758,6.915924947
17.08482258,-3.0523258,-7.280847096,7.652683818,10.99504419
17.09481458,-4.751923987,-8.714383814,8.81145695,13.27264256
17.10480558,-5.656428022,-8.95141298,5.948654319,12.14534728
17.11479758,-4.71286868,-7.843825205,1.3867549,9.255258732
17.12478958,-2.478809254,-6.544750473,-1.244050094,7.10815832
17.13478058,-0.9977571845,-5.621903138,-1.831411092,5.996280587
17.14477258,-0.506015119,-4.92235629,-1.303240288,5.11703801
17.15476458,-0.7972221728,-4.312500468,-0.1154404092,4.387089009
17.16475558,-1.299289325,-3.611230447,1.704880562,4.19949471
17.17474758,-1.916140609,-2.884312198,3.337790377,4.809542212
17.18473958,-2.141803811,-1.730931954,4.161052905,4.989770563
17.19473058,-1.949087184,-0.2473746443,4.12159911,4.565929729
17.20472258,-2.596513998,0.8530421054,3.665510442,4.572256836
17.21471358,-2.885262078,1.879868723,3.65525121,5.021902536
17.22470558,-2.294226105,3.017981302,3.670082672,5.27647528
17.23469758,-2.272668883,4.408313529,3.979926045,6.359092965
17.24468858,-1.990930152,3.982053847,5.063691094,6.742516088
17.25468058,-1.407132739,4.514763259,5.998691282,7.638547436
17.26467258,-1.368300795,6.219362277,6.458671857,9.070124385
17.27466358,-1.98376205,7.926551612,6.486242648,10.43249136
17.28465558,-2.364455843,9.258167269,6.199193476,11.39009712
17.29464758,-2.588805321,9.903101707,6.060791051,11.8956515
17.30463858,-2.42882667,9.698014126,5.728341174,11.52235087
17.31463058,-2.009798824,9.227338409,5.543676748,10.95058982
17.32462258,-1.848668565,9.578443828,5.359339766,11.13043954
17.33461358,-2.466078697,10.35761747,4.785657159,11.67322999
17.34460558,-3.125753088,10.59616282,4.553010482,11.94901265
17.35459758,-3.188829927,10.68532351,4.502630872,12.02574154
17.36458858,-3.275873333,10.33500746,4.102970173,11.59215638
17.37458058,-3.465250615,9.510429016,3.33735242,10.65805531
17.38457258,-3.002647564,8.47030583,2.3493519,9.288779662
17.39456358,-1.303914472,6.907231066,0.4185410652,7.041676687
17.40455558,-0.03905147027,4.001011105,-3.679057856,5.435538757
17.41454758,0.7679269646,-0.728538512,-8.961964281,9.024260854
17.42453858,3.057221382,-8.885201449,-10.15196739,13.83314314
17.43453058,9.207954304,-23.63679391,-16.41474232,30.21470195
17.44452258,11.5979464,-36.81034624,-20.75213322,43.81968718
17.45451358,5.101502114,-29.07671825,-13.41873544,32.42750883
17.46450558,-0.7637996344,-9.641435298,-7.750680814,12.39410011
17.47449658,-6.505710953,2.829364159,-1.730801561,7.302414025
17.48448858,-11.08810896,9.779458823,0.5143272284,14.79352925
17.49448058,-11.60451867,11.82138137,4.230032801,17.09687365
17.50447158,-12.09290619,7.049901958,6.569149734,15.46263968
17.51446358,-10.86381912,-0.4630585492,6.185991048,12.51013486
17.52445558,-6.442543482,-7.62592696,6.843480628,12.10348527
17.53444658,-2.019695822,-15.11837017,-0.5692162111,15.26329895
17.54443858,2.0247427,-18.98904333,-4.576001149,19.63728943
17.55443058,0.9282862692,-12.76317135,8.828074152,15.5465479
17.56442158,-6.718527968,-1.515810551,5.141536245,8.594864434
17.57441358,-6.316741222,3.661769686,3.637872115,8.157443866
17.58440558,-1.996135489,5.740488179,10.03498332,11.73195003
17.59439658,-0.1309667036,7.392133058,15.974806,17.60270463
17.60438858,-1.117331137,8.487766786,17.4242068,19.41374762
17.61438058,-5.268874569,7.487855487,12.29856913,15.33244344
17.62437158,-7.858804602,4.950431111,4.206012146,10.1959853
17.63436358,-4.998748409,1.186207682,3.028314209,5.963661733
17.64435558,-1.212369587,-3.557584582,6.277708719,7.316821361
17.65434658,0.8229022669,-8.024529896,4.879696467,9.427708407
17.66433858,3.100808866,-11.24837295,3.139773542,12.08300822
17.67433058,5.629620878,-11.49674162,2.922389559,13.13042497
17.68432158,6.632102028,-8.182700588,2.204815015,10.76116051
17.69431358,5.27577136,-2.762498909,1.445494421,6.128182258
17.70430558,1.973575031,0.6846943349,0.9285391612,2.286042368
17.71429658,-0.08397928264,2.654818339,0.3960621755,2.685512648
17.72428858,-1.17080999,4.241762608,-0.07288568929,4.400983796
17.73427958,-1.769362486,4.382650684,-0.3431415848,4.738777983
17.74427158,-1.672518269,3.967886628,-0.4972038766,4.334588025
17.75426358,-0.8685982572,4.13843529,-0.8154795921,4.306520237
17.76425458,-0.3064539611,4.270167797,-0.9508554983,4.385472976
17.77424658,-0.1880310334,4.143004305,-0.4609208071,4.172803414
17.78423858,-0.04644004852,3.293321425,0.6314232767,3.353627594
17.79422958,0.00258490786,1.829594947,1.623496968,2.446051258
17.80422158,0.2874213472,1.12565918,2.35520467,2.626158537
17.81421358,0.7343310562,1.387091115,2.512583064,2.9624884
17.82420458,0.8198271431,2.073510963,1.579226528,2.732310504
17.83419658,0.8649236476,2.976083663,-0.2738205043,3.111293068
17.84418858,0.03954910487,2.821715416,-2.297464585,3.638953907
17.85417958,-0.3242611447,1.576412848,-3.812897991,4.138648795
17.86417158,0.05380987912,0.6275454032,-4.576875308,4.620010424
17.87416358,0.6893384859,0.5969644654,-4.418460202,4.511578956
17.88415396,2.679484526,0.8878312844,-3.278944291,4.326587267
17.89414596,5.273099182,0.03095574439,-1.659805984,5.528244672
17.90413796,7.908192524,-1.86706332,-0.2351351063,8.129005041
17.91412896,9.886045378,-3.663857726,0.935841018,10.58458998
17.92412096,10.4503625,-4.90301604,1.224612195,11.60815738
17.93411296,9.989528232,-5.371178623,0.2574166524,11.3448886
17.94410396,9.105412268,-5.077792239,-1.495142544,10.53223423
17.95409596,8.100467101,-4.609615622,-3.338904564,9.90022258
17.96408696,7.642160584,-4.31055393,-5.025660219,10.11141702
17.97407896,7.64650565,-4.380252156,-5.418895996,10.34505154
17.98407096,7.707990292,-4.629202625,-4.518148797,10.06261894
17.99406196,7.562015723,-5.312501814,-3.222074271,9.787160974
18.00405396,7.542860245,-7.805946942,-1.604394114,10.9727676
18.01404596,6.532547334,-9.703267264,-0.3678935064,11.70311565
18.02403696,3.991653513,-8.935435463,-1.239420853,9.864657558
18.03402896,2.722994535,-7.863782337,-3.487788123,9.023216603
18.04402096,3.798759716,-6.495466631,-4.215546616,8.625108429
18.05401196,4.824508983,-4.668384233,-2.933941026,7.326507232
18.06400396,3.993171158,-3.942040181,-0.8060433555,5.668756704
18.07399596,1.853600691,-4.595082368,1.376500053,5.142506187
18.08398696,-0.7587118989,-5.931175237,4.465513916,7.462928244
18.09397896,-4.264563533,-8.649299626,6.440249619,11.59627963
18.10397096,-7.596526574,-11.68310291,5.487959214,14.9773097
18.11396196,-8.488981837,-12.55785456,1.029635181,15.19284938
18.12395396,-6.379889982,-11.16231597,-2.580572734,13.11333861
18.13394596,-2.997261986,-8.787419046,-2.129643649,9.525633573
18.14393696,-0.8911614199,-7.090955844,0.1464530177,7.148235583
18.15392896,-0.6731424294,-5.848136004,1.405834657,6.052287711
18.16392096,-1.413141923,-4.391194636,1.935629818,5.002621634
18.17391196,-1.62905957,-2.821123677,2.485157869,4.097387402
18.18390396,-1.553626103,-1.520508789,3.290510083,3.943749187
18.19389496,-1.969355388,0.005182971954,3.985701925,4.445695372
18.20388696,-2.182544286,1.365426596,4.383435673,5.083541841
18.21387896,-2.290316364,2.478134193,4.074668773,5.290522066
18.22386996,-2.28583535,3.4133174,3.682249266,5.516768853
18.23386196,-1.997484296,3.903878328,3.56328591,5.650417328
18.24385396,-2.179721543,4.816270257,4.10669485,6.694220476
18.25384496,-2.050972432,4.37196022,5.231789188,7.119841444
18.26383696,-1.942356308,4.832096331,5.883354954,7.857211241
18.27382896,-1.959981424,6.059937358,6.159249977,8.86006367
18.28381996,-2.467418586,7.658861986,6.163521953,10.13584354
18.29381196,-3.050656713,8.904228873,5.976844915,11.14964005
18.30380396,-3.499569093,9.721017657,5.833060128,11.86464321
18.31379496,-3.369106017,9.589887414,5.688854342,11.64817066
18.32378696,-2.751865162,9.926188853,5.361214383,11.61226105
18.33377896,-2.263840903,10.80846236,5.091570618,12.16026009
18.34376996,-2.486169437,12.02138188,4.871839855,13.20717548
18.35376196,-3.102275932,12.30044843,4.779115587,13.55599843
18.36375296,-3.666041077,11.45378914,4.581188506,12.86920476
18.37374496,-3.789462935,10.34295266,4.239922197,11.80311989
18.38373696,-3.303757828,8.826347469,3.32988728,9.995367663
18.39372796,-1.750618359,6.619888363,1.188659712,6.949856006
18.40371996,-0.07095376924,3.649595783,-1.975454034,4.150542429
18.41371196,0.5622705229,-1.291508435,-7.333801235,7.46784994
18.42370296,0.6033112891,-9.238835789,-12.50124649,15.55638888
18.43369496,7.263787259,-24.34034961,-22.18021507,33.72205754
18.44368696,13.45514605,-38.58618773,-22.23783119,46.52371412
18.45367796,7.751473112,-29.54631983,-11.8121685,32.75053703
18.46366996,1.083110819,-8.391675398,-7.14319253,11.07332581
18.47366196,-3.680105385,4.701766571,-2.025039007,6.304805113
18.48365296,-6.380809164,11.99732292,2.861472974,13.88663064
18.49364496,-8.60907546,15.11926597,6.394492233,18.53639432
18.50363696,-10.1233862,12.27088491,9.78118726,18.67429219
18.51362796,-9.839675789,5.366067572,11.41528523,15.99758225
18.52361996,-8.651673596,-0.9036965346,10.33126056,13.50566801
18.53361096,-6.060516232,-9.230953742,3.439758216,11.5659976
18.54360296,-4.943171793,-23.2864802,-13.80944171,27.52082462
18.55359496,3.222542049,-33.0336624,-8.113530951,34.16777741
18.56358596,-0.8467365412,-19.74791603,8.539614047,21.53188701
18.57357796,-6.749557972,-0.5054730821,3.335349164,7.54563383
18.58356996,-4.452965207,6.70512615,8.412256427,11.64275199
18.59356096,-2.359254452,9.690151375,12.14918096,15.71838774
18.60355296,-2.060601188,11.16083078,16.32653473,19.88381144
18.61354496,-5.840458025,9.477371197,17.38763714,20.64609988
18.62353596,-10.57676293,6.96585525,10.60146508,16.51611683
18.63352796,-10.96980341,5.317788282,2.391341633,12.42312255
18.64351996,-7.004250991,2.076923983,1.379782388,7.434846644
18.65351096,-4.268968533,-3.640300464,4.374002652,7.113914464
18.66350296,-2.158889375,-8.874762415,3.207573177,9.680430617
18.67349496,0.7897770593,-12.40471832,2.110009722,12.60765344
18.68348596,4.043680868,-12.11940928,3.673066506,13.29371482
18.69347796,6.32003262,-8.077671731,4.449231759,11.17976995
18.70346896,5.600480694,-3.68770618,2.871641282,7.294579119
18.71346096,3.294223065,-0.3060280645,1.047555654,3.47029273
18.72345296,1.256649236,2.256251655,-0.01386963207,2.582640354
18.73344396,-0.06239736955,3.905135479,-0.9009448349,4.008201359
18.74343596,-0.6315810053,5.092625456,-0.7217072099,5.182141439
18.75342796,-1.537311932,5.702151495,0.3489162219,5.916046161
18.76341896,-2.399434471,6.169548678,1.670978113,6.827355603
18.77341096,-1.961580638,5.763034458,2.266935103,6.496103411
18.78340296,-1.045749084,3.955789908,2.158934106,4.626322667
18.79339396,0.2384036268,1.495256419,2.022755377,2.526690991
18.80338596,1.39837858,0.09508742094,1.874486945,2.340556681
18.81337796,1.793582677,-0.1955133498,1.624046606,2.427486697
18.82336896,1.863369196,0.3489793718,1.107156835,2.195387806
18.83336096,1.710014563,0.9562109631,0.307513842,1.983192874
18.84335196,1.394173117,0.8588518989,-0.805044651,1.824675904
18.85334396,1.124590309,-0.001937767267,-2.1095896,2.390622387
18.86333596,1.467080441,-0.6272501189,-3.480063951,3.828395595
18.87332696,2.103564775,-0.436237371,-4.881326086,5.333163429
18.88331896,2.1070924,0.6178302544,-5.16794461,5.615087185
18.89331096,2.662386975,1.597856342,-4.501737417,5.468737429
18.90330196,5.283269244,1.004678534,-3.530353514,6.43317253
18.91329396,8.665159614,-0.6186389244,-1.780679041,8.867836439
18.92328596,10.61611352,-2.215001888,0.0898491928,10.84509901
18.93327696,10.89768853,-3.640660653,0.6549027711,11.5083849
18.94326896,10.11858564,-4.406007387,-0.208598249,11.03821496
18.95326096,8.825529444,-4.375942758,-2.187465741,10.09078051
18.96325196,7.56952881,-3.751812129,-4.60050683,9.619694577
18.97324396,6.755571833,-3.110376665,-6.456541132,9.848812983
18.98323496,7.019203491,-3.292662444,-7.145252504,10.54350402
18.99322696,7.356415926,-3.756373542,-6.172298039,10.3113753
19.00321896,7.535196299,-5.081243266,-4.256558987,10.0357616
19.01320996,7.531040683,-8.203645899,-1.854375447,11.28960088
19.02320196,6.147667227,-9.842014675,-0.3156081426,11.60856036
19.03319396,3.562233995,-8.805115644,-1.143704272,9.567007474
19.04318496,1.752253241,-7.348361971,-3.249855562,8.223768981
19.05317696,1.528946321,-6.096028127,-4.409712768,7.677551854
19.06316896,1.452741314,-5.010286134,-2.793551717,5.917546423
19.07315996,0.5035230356,-5.39876871,0.9534855759,5.50539497
19.08315196,-0.8650806454,-7.266787466,5.695166996,9.273051909
19.09314296,-2.613270656,-9.580673956,8.799673641,13.26848722
19.10313496,-5.163084989,-11.25188128,6.938021919,14.19149136
19.11312696,-6.662845518,-11.34859657,1.77635254,13.2792915
19.12311796,-5.376934623,-10.10786769,-2.672512014,11.75681656
19.13310996,-2.204444447,-8.600806328,-4.14594487,9.799097085
19.14310196,-0.2487018161,-7.915632522,-2.395771483,8.273984035
19.15309296,-0.1398740961,-7.645737911,-0.8106439447,7.689864535
19.16308496,-1.652896475,-6.953623459,0.3521286821,7.156042243
19.17307696,-2.755538091,-5.823455492,1.394234658,6.591624558
19.18306796,-2.582383324,-4.120056907,2.109820418,5.300463635
19.19305996,-2.39482555,-1.880872105,2.90517214,4.208668964
19.20305196,-2.728182477,0.004199470282,3.818291755,4.692797587
19.21304296,-3.042885471,1.816987181,3.857101479,5.23811285
19.22303496,-3.197588764,3.397267377,3.535020177,5.85340646
19.23302596,-2.943891233,4.065564365,3.473299015,6.104024512
19.24301796,-2.76601367,4.319713594,4.155512084,6.601442102
19.25300996,-2.646391625,5.084903623,4.948298632,7.572667485
19.26300096,-2.634283503,5.494672403,5.621854606,8.290725155
19.27299296,-2.353741843,5.909250517,5.6986227,8.540119614
19.28298496,-2.262792497,6.986909904,5.595020564,9.232626657
19.29297596,-2.305995819,8.008697975,5.57969852,10.02945141
19.30296796,-2.48016727,8.249101569,5.685978096,10.32130095
19.31295996,-2.65162576,8.789029954,5.959718421,10.94515465
19.32295096,-2.637307683,9.855746276,6.287484094,11.98430568
19.33294296,-2.260995355,10.23121938,6.223353587,12.18688147
19.34293396,-1.900420224,10.27645812,6.028969334,12.06505946
19.35292596,-2.513612467,10.75589238,6.154392695,12.64452522
19.36291796,-3.684402503,11.11346365,5.999073105,13.15571261
19.37290896,-4.470797168,10.94954281,5.466152024,13.02917238
19.38290096,-4.963508409,10.76620921,4.606292065,12.71871075
19.39289296,-4.659513422,10.22691115,3.703538394,11.83287681
19.40288396,-3.194279239,8.556556354,2.290572765,9.416198813
19.41287596,-1.975549197,5.918770369,-0.2812846944,6.246099454
19.42286796,-1.319089897,2.179820945,-5.953659536,6.475930773
