"Time (s)","Linear Acceleration x (m/s^2)","Linear Acceleration y (m/s^2)","Linear Acceleration z (m/s^2)","Absolute acceleration (m/s^2)"
3.770999989E-3,-1.599340366E0,9.775784433E-1,-3.051550752E-1,1.899123176E0
1.376199999E-2,-1.666795599E0,1.495911307E0,-1.687578358E0,2.804260851E0
2.375399999E-2,-1.416902121E0,1.654617603E0,-2.899927188E0,3.626975148E0
3.374499999E-2,-4.279249692E-1,1.218450691E0,-3.676430994E0,3.896650706E0
4.373700000E-2,6.221364364E-2,9.890755311E-1,-3.600901340E0,3.734786661E0
5.372800000E-2,-8.530576006E-1,9.862782231E-1,-2.642302959E0,2.946560186E0
6.372000001E-2,-1.323956681E0,-1.123650661E-1,-2.456526393E-1,1.351233666E0
7.371100000E-2,-3.681744944E0,-8.009087692E-1,6.643164960E0,7.637299350E0
8.370300001E-2,-8.801331326E-1,-2.334574670E0,7.435850351E0,7.843261035E0
9.369400001E-2,1.092490410E0,-4.031240332E0,4.001515135E0,5.784164355E0
1.036860000E-1,4.790373085E-1,-3.526778819E0,7.179187989E-1,3.630847419E0
1.136770000E-1,7.945711184E-1,-2.401877877E0,-2.892828083E-1,2.546378829E0
1.236690000E-1,1.133534283E0,-1.220741338E0,7.096882582E-1,1.810736538E0
1.336600000E-1,1.008558965E0,-5.999013025E-1,2.646208314E0,2.894735083E0
1.436520000E-1,8.661734169E-1,-4.701538165E-1,3.583219945E0,3.716283920E0
1.536430000E-1,4.053809562E-1,-2.304081441E-1,2.694939010E0,2.734980420E0
1.636350000E-1,4.728634527E-1,2.415136877E-1,9.849646461E-1,1.118965621E0
1.736260000E-1,1.178093648E0,9.095237236E-1,1.059866309E-1,1.492102950E0
1.836180000E-1,2.184066316E0,1.754171420E0,-2.898289382E-2,2.801446600E0
1.936090000E-1,2.571263967E0,2.214787880E0,-1.384497875E-1,3.396446979E0
2.036010000E-1,2.598531580E0,1.893647540E0,-3.781996626E-1,3.237483955E0
2.135920000E-1,2.047384873E0,1.044245546E0,-1.848786094E0,2.949617534E0
2.235840000E-1,-2.987626652E0,-6.332298470E-1,-3.334118618E0,4.521420131E0
2.335750000E-1,-1.190273719E1,9.108934338E-1,-3.057940004E0,1.232298164E1
2.435670000E-1,-3.647153401E0,4.847745526E0,4.787957454E-1,6.085360300E0
2.535580000E-1,1.020577581E1,5.894226097E0,-9.090014210E0,1.488382073E1
2.635500000E-1,1.222438317E1,1.828330341E0,-8.420713255E0,1.495616085E1
2.735398333E-1,5.981470647E0,-2.188409920E0,-3.883706018E0,7.459912970E0
2.835318333E-1,-2.811649142E0,-3.911478246E0,1.891458489E0,5.175195473E0
2.935228333E-1,-6.223200974E0,-4.871783137E0,-1.258466989E-1,7.904324051E0
3.035148333E-1,1.445622913E0,-9.121109118E0,-4.824665689E0,1.041930210E1
3.135058333E-1,-1.050893464E0,-1.056656305E1,-6.108304356E0,1.225022505E1
3.234978333E-1,-3.486967174E0,-9.931112208E0,-7.479899765E0,1.291258418E1
3.334888333E-1,-3.363240675E0,-1.014813396E1,-8.338323063E0,1.355815777E1
3.434808333E-1,-3.849535475E0,-1.050187764E1,-9.025910600E0,1.437273180E1
3.534728333E-1,-4.554741842E0,-1.092477400E1,-9.961803074E0,1.547041954E1
3.634638333E-1,-5.354418749E0,-1.154875260E1,-9.283533660E0,1.575523672E1
3.734558333E-1,-6.649902121E0,-1.302968393E1,-8.324233028E0,1.683112346E1
3.834468333E-1,-7.368316764E0,-1.516566362E1,-8.426224256E0,1.884915649E1
3.934388333E-1,-7.160795572E0,-1.658101141E1,-6.444569542E0,1.917653277E1
4.034298333E-1,-6.335856355E0,-1.641332028E1,-4.016651822E0,1.804643040E1
4.134218333E-1,-4.645683002E0,-1.542312237E1,-3.755549669E0,1.653962598E1
4.234128333E-1,-3.893091969E0,-1.446431700E1,-3.079146101E0,1.529227819E1
4.334048333E-1,-3.031867855E0,-1.448728837E1,-1.719695944E0,1.490070808E1
4.433958333E-1,-1.711633803E0,-1.353093532E1,-8.089330494E-1,1.366273302E1
4.533878333E-1,-2.752717102E-1,-1.216796222E1,2.223871895E-1,1.217310704E1
4.633788333E-1,2.060885071E0,-1.088594381E1,1.774641645E0,1.122053354E1
4.733708333E-1,4.003565753E0,-8.661804482E0,4.956063734E0,1.075257938E1
4.833618333E-1,5.479477243E0,-7.893769197E0,7.241680691E0,1.203238140E1
4.933538333E-1,8.619800423E0,-8.268175771E0,8.904962114E0,1.489839052E1
5.033448333E-1,1.277807005E1,-6.488358171E0,1.142663117E1,1.832882336E1
5.133368333E-1,1.598724888E1,-3.329583517E0,1.341430325E1,2.113342813E1
5.233278333E-1,1.906297553E1,-7.685901850E-1,1.510197341E1,2.433222899E1
5.333198333E-1,2.277530492E1,-7.037036330E-1,1.552046565E1,2.756981260E1
5.433108333E-1,2.694006379E1,1.197188753E0,1.521178646E1,3.096124586E1
5.533028333E-1,2.916528719E1,4.992747411E0,1.468803264E1,3.303452446E1
5.632938333E-1,2.927542768E1,7.843340471E0,1.430741749E1,3.351523312E1
5.732858333E-1,2.807302263E1,8.933505297E0,1.302518274E1,3.221113941E1
5.832768333E-1,2.461600139E1,8.657053034E0,1.049743492E1,2.812629075E1
5.932688333E-1,2.110960625E1,7.937225704E0,7.805651658E0,2.386510477E1
6.032598333E-1,1.823469170E1,7.774856712E0,6.867386384E0,2.097887924E1
6.132518333E-1,1.661456858E1,8.706847923E0,6.706876221E0,1.992072485E1
6.232428333E-1,1.536082263E1,9.217856564E0,4.942110524E0,1.858354670E1
6.332348333E-1,1.381382712E1,9.626561735E0,2.141450931E0,1.697287020E1
6.432258333E-1,1.189626900E1,1.022690998E1,-5.412792380E-1,1.569725732E1
6.532178333E-1,9.599600809E0,1.054712807E1,-3.213084762E0,1.461910257E1
6.632088333E-1,6.918339606E0,1.051819605E1,-5.411451906E0,1.370327270E1
6.732008333E-1,4.251760762E0,8.892368966E0,-6.879273189E0,1.201982092E1
6.831918333E-1,1.707111567E0,6.101182448E0,-9.097660614E0,1.108630172E1
6.931838333E-1,7.202372199E-1,5.433806981E0,-7.312946556E0,9.139156815E0
7.031748333E-1,-6.147633898E-1,6.520325484E0,-4.610215254E0,8.009161200E0
7.131668333E-1,-2.652907469E0,6.342098258E0,-3.827815408E0,7.868436893E0
7.231578333E-1,-6.414702550E0,3.742440796E0,-3.929856922E0,8.402264418E0
7.331498333E-1,-1.095276813E1,4.424952950E0,-7.368459436E-1,1.183580501E1
7.431408333E-1,-8.685033715E0,6.138643219E0,-4.216316110E-1,1.064380216E1
7.531328333E-1,-5.278273968E0,1.563370634E0,-5.128753062E0,7.523856179E0
7.631238333E-1,-3.821705067E0,-6.157270110E-1,-3.386272273E0,5.143091413E0
7.731158333E-1,-3.345234175E0,1.190652736E0,9.014351240E-1,3.663445223E0
7.831068333E-1,-3.342798809E0,9.225502968E-1,8.106407288E-1,3.561255582E0
7.930988333E-1,-2.827720506E0,-4.482785422E-1,-1.602523005E-1,2.867514204E0
8.030898333E-1,-1.745995551E0,-8.041716617E-1,1.091316143E0,2.210466794E0
8.130818333E-1,-1.048878806E0,-7.510238044E0,3.497922809E0,8.351005101E0
8.230728333E-1,-1.639202589E0,-4.713337626E0,4.430994586E0,6.673548511E0
8.330648333E-1,-1.050068715E0,3.587343986E0,5.768581127E0,6.873733294E0
8.430558333E-1,-2.636486149E0,-6.956869833E0,5.026534377E0,8.978593706E0
8.530478333E-1,-6.093114460E-1,-1.240176664E1,1.240725367E0,1.247856064E1
8.630388333E-1,2.376275112E0,-1.156034296E1,-6.056651223E-1,1.181757348E1
8.730308333E-1,3.447792583E0,-7.260618069E0,3.606091914E-1,8.045737221E0
8.830218333E-1,1.566601805E0,-3.172843639E0,1.089999643E0,3.702604110E0
8.930138333E-1,5.527981067E-1,1.508353597E-1,-2.901325549E0,2.957368255E0
9.030048333E-1,3.497312068E0,5.119301623E0,-3.012256001E0,6.892904107E0
9.129968333E-1,1.008608447E1,5.244870579E-1,-1.074446634E0,1.015670332E1
9.229878333E-1,1.189967442E1,-2.863259298E0,-5.451139882E0,1.339833688E1
9.329798333E-1,1.048443423E1,-4.270315146E-1,-6.074970549E0,1.212480862E1
9.429708333E-1,9.896994874E0,2.894684574E0,-6.410842803E0,1.214201844E1
9.529628333E-1,1.069902236E1,4.746332880E0,-4.733767798E0,1.262558168E1
9.629538333E-1,1.060945705E1,2.616632513E0,-1.675088121E0,1.105501085E1
9.729458333E-1,8.017402140E0,-5.301152954E0,1.730486981E0,9.766040391E0
9.829368333E-1,7.338829840E0,-6.820781152E0,5.157413775E0,1.126855784E1
9.929288333E-1,6.185372998E0,-4.083531105E0,7.242108707E0,1.036253849E1
1.002920833E0,4.085436713E0,-3.854921345E0,8.266172515E0,9.994039211E0
1.012911833E0,1.306265053E0,-3.425335182E0,6.440575894E0,7.410820963E0
1.022903833E0,-6.841639924E-1,-1.488316943E0,5.961790674E0,6.182727208E0
1.032894833E0,-3.462141650E0,6.758580226E-1,1.167058636E0,3.715539629E0
1.042886833E0,-9.594617227E0,3.632624239E0,-1.589151592E0,1.038162036E1
1.052877833E0,-9.874591852E0,4.157159244E0,-1.996378587E0,1.089839735E1
1.062869833E0,-1.148602718E1,3.724910259E0,-2.747002033E0,1.238344851E1
1.072860833E0,-1.445581515E1,-2.846003580E-1,-2.428634005E0,1.466116817E1
1.082852833E0,-1.509840310E1,-9.424928105E0,-1.058998582E0,1.783010162E1
1.092843833E0,-1.135992028E1,-1.233330861E1,-7.010914478E0,1.817446593E1
1.102835833E0,-1.189413594E1,-4.332890879E0,-6.559874296E0,1.425750202E1
1.112826833E0,-1.562583248E1,-3.183644616E0,-1.520929788E0,1.601922161E1
1.122818833E0,-1.200667028E1,-7.074087211E0,7.953510200E0,1.604559646E1
1.132809833E0,-9.444314548E0,-9.014924852E0,8.462022665E0,1.555859168E1
1.142801833E0,-1.567974614E1,-4.397065533E0,1.040377072E1,1.932426116E1
1.152792833E0,-1.105746487E1,-6.056819623E0,4.515295941E0,1.339180685E1
1.162784833E0,-9.705740637E-1,-6.543455315E-1,-3.769954577E0,3.947497891E0
1.172775833E0,-7.962020237E0,-1.556411862E0,5.416556525E0,9.754756211E0
1.182767833E0,-1.378603180E1,-3.892287392E0,1.111934244E1,1.813406602E1
1.192758833E0,-1.513724148E1,-1.688729090E0,7.642944696E0,1.704119975E1
1.202750833E0,-5.810149568E0,-5.071460874E0,-3.741895251E0,8.572008718E0
1.212741833E0,4.648376230E0,-7.323510135E0,-1.258474356E1,1.528453378E1
1.222733833E0,1.285430137E1,-7.309063420E0,-2.250864382E1,2.693129255E1
1.232724833E0,1.957593772E1,-5.694378791E0,-3.013011520E1,3.637948775E1
1.242716833E0,1.137394542E1,9.308305389E-1,-9.019262316E0,1.454579570E1
1.252707833E0,5.787632525E0,4.820363308E0,-2.635420494E-1,7.536713281E0
1.262699833E0,2.959305663E0,4.439748160E0,1.682300223E0,5.594549827E0
1.272691333E0,-3.466787848E-1,1.243522675E0,-2.532743387E-1,1.315554147E0
1.282683333E0,-2.067588903E0,-4.247107548E0,-2.933424132E0,5.560379801E0
1.292674333E0,-2.578625611E0,-7.250635702E0,-1.118710495E0,7.776409280E0
1.302666333E0,-2.543865961E0,-6.311816112E0,1.537387362E0,6.976663713E0
1.312657333E0,-2.409359243E0,-3.044047020E0,2.008598391E0,4.371006946E0
1.322649333E0,-4.205864504E0,-6.965963423E-2,1.081080008E0,4.343142028E0
1.332640333E0,-7.104579856E0,9.325659925E-1,-9.060330820E-1,7.222577809E0
1.342632333E0,-4.688489884E0,2.462291163E0,-8.506084943E-1,5.363613518E0
1.352623333E0,-6.240496454E-1,2.302894894E0,-2.202168126E-1,2.396092298E0
1.362615333E0,-8.540919730E-1,8.580859137E-1,1.449007866E0,1.888228887E0
1.372606333E0,-6.256526595E-1,-7.978227550E-1,2.496487434E0,2.694515152E0
1.382598333E0,1.348476834E0,-3.439452699E0,2.060628963E0,4.230179235E0
1.392589333E0,7.357913983E-1,-6.053460397E0,7.917388733E-1,6.149196875E0
1.402581333E0,1.267038861E0,-8.866361135E0,-1.427923684E-1,8.957574276E0
1.412572333E0,3.330896802E0,-1.069674429E1,-1.259570651E-1,1.120406520E1
1.422564333E0,3.774469505E0,-9.248867272E0,1.786178201E-2,9.989418647E0
1.432555333E0,3.716901620E0,-6.395845279E0,1.639608678E0,7.576972423E0
1.442547333E0,3.414557009E0,-4.032094318E0,3.418512651E0,6.293108366E0
1.452538333E0,2.866051344E0,-1.734322169E0,2.904004451E0,4.433437215E0
1.462530333E0,3.572062873E0,-1.595873551E0,-9.053741008E-2,3.913392720E0
1.472522333E0,5.716818066E0,-3.253810619E0,-2.339370410E0,6.981543258E0
1.482513333E0,8.059027884E0,-3.254223433E0,-1.904360809E0,8.897442929E0
1.492505333E0,9.202533351E0,-2.988787324E0,-4.015527110E-1,9.684044316E0
1.502496333E0,7.445187185E0,-2.978345366E0,3.384709020E-1,8.025952647E0
1.512488333E0,2.857573758E0,-1.284813958E0,5.701657990E-1,3.184582190E0
1.522479333E0,-2.783408259E0,4.125479615E-1,2.420824317E0,3.711865802E0
1.532471333E0,-5.476061300E0,-3.066425484E0,7.671572664E0,9.911772785E0
1.542462333E0,-3.974686063E0,-3.038888022E0,6.205980924E0,7.971647818E0
1.552454333E0,1.763868442E0,1.632359592E0,-8.021176080E-1,2.533618436E0
1.562445333E0,4.276059743E0,2.747848710E0,-1.682178454E0,5.353978317E0
1.572437333E0,4.979925637E0,1.496955035E0,-1.251134580E0,5.348445705E0
1.582428333E0,5.260212504E0,-4.005617541E-1,-9.211387058E-1,5.355257400E0
1.592420333E0,4.782132750E0,-2.908693918E0,-9.684048928E-2,5.598095393E0
1.602411333E0,9.844351807E-1,-7.321197562E0,3.347638550E0,8.110223808E0
1.612403333E0,-1.310790798E-1,-7.211463450E0,2.953290632E0,7.793863764E0
1.622394333E0,4.298480892E0,-2.620334970E0,-9.814236454E-1,5.128965364E0
1.632386333E0,4.750049370E0,-1.352080327E0,-1.483471355E0,5.156721583E0
1.642377333E0,3.232681121E0,-9.299885398E-1,-1.430437109E0,3.655305218E0
1.652369333E0,1.521872944E0,-3.710350692E-1,-1.226075607E0,1.989227406E0
1.662360333E0,-1.171761551E-1,8.166513741E-2,-9.281415506E-1,9.390666557E-1
1.672352333E0,-1.360162641E0,6.843452561E-1,-6.838004418E-1,1.669117696E0
1.682343333E0,-2.255790018E0,1.211596293E0,-6.471100406E-1,2.641080382E0
1.692335333E0,-3.127272487E0,1.424947743E0,-1.187172912E0,3.635888997E0
1.702326333E0,-3.556466594E0,2.215024692E0,-1.622998785E0,4.493207549E0
1.712318333E0,-3.058451051E0,3.560741494E0,-6.059609914E-1,4.732884062E0
1.722309333E0,-5.360843085E0,2.270108972E0,-4.501446810E-1,5.839063586E0
1.732301333E0,-6.249608170E0,1.681765641E0,1.492080796E-1,6.473654377E0
1.742292333E0,-6.098384555E0,5.627190775E-1,1.316003445E0,6.264089080E0
1.752284333E0,-5.119008093E0,-7.091503143E-2,2.690087575E0,5.783238189E0
1.762275333E0,-4.285276417E0,5.043463236E-1,4.074335189E0,5.934489567E0
1.772267333E0,-3.911168636E0,7.800530666E-1,5.987732431E0,7.194349348E0
1.782258333E0,-2.638276566E0,1.731385113E0,6.077570221E0,6.847996601E0
1.792250333E0,-5.564128554E-1,3.238734743E0,4.281544139E0,5.397278779E0
1.802241333E0,1.180499923E0,4.206451857E0,3.294038293E0,5.471609048E0
1.812233333E0,2.539196666E0,4.813154275E0,2.737639471E0,6.091686438E0
1.822224333E0,3.464841602E0,4.932643297E0,2.642252381E0,6.581610355E0
1.832216333E0,3.703959978E0,4.476032472E0,2.714354981E0,6.412636679E0
1.842207333E0,3.758565371E0,3.973215780E0,2.972947217E0,6.225084131E0
1.852199333E0,3.954224901E0,3.546012942E0,3.301606637E0,6.253855510E0
1.862190333E0,4.272976507E0,2.887448060E0,3.730928214E0,6.365179484E0
1.872182333E0,3.934856584E0,4.438165319E-1,4.015787896E0,5.639735975E0
1.882173333E0,2.717585860E0,-2.964992080E0,3.211721191E0,5.146999510E0
1.892165333E0,1.858670227E0,-6.016064529E0,1.915935226E0,6.581678754E0
1.902157333E0,9.302005014E-1,-7.564954534E0,-2.603165790E-2,7.621974004E0
1.912148333E0,-4.220061252E-1,-7.739046024E0,-5.739998767E0,9.644610328E0
1.922140333E0,-3.634299174E0,-7.967248233E0,-1.763520241E1,1.968973181E1
1.932131333E0,-1.708660494E0,-4.840765412E0,-8.007089406E0,9.511362217E0
1.942123333E0,1.921890615E0,1.857649888E0,-1.597314159E0,3.113830304E0
1.952114333E0,3.751610108E0,3.912017652E0,1.415336237E0,5.601931557E0
1.962106333E0,3.589290816E0,3.190136780E0,2.545350276E0,5.434959914E0
1.972097333E0,2.767176681E0,2.234390085E0,2.849195575E0,4.557157147E0
1.982089333E0,2.603734432E0,2.105761281E0,2.838390505E0,4.389774963E0
1.992080333E0,1.942367857E0,1.324522399E0,2.354537065E0,3.327310816E0
2.002072333E0,1.100303898E0,1.886042798E-1,1.987689771E0,2.279726051E0
2.012063333E0,-1.689786851E-2,-1.166970928E0,-4.737380500E-1,1.259577081E0
2.022055333E0,-1.908812732E0,-3.275638860E0,-6.157413951E0,7.230983512E0
2.032046333E0,-1.836620961E0,-3.308052900E0,-3.456508443E0,5.124825964E0
2.042038333E0,-1.165701205E0,-2.431237770E0,-5.649145608E-1,2.754796699E0
2.052029333E0,-1.060201062E0,-1.775394766E0,1.019840949E0,2.305673097E0
2.062021333E0,-1.279307927E0,-1.369230795E0,1.688846619E0,2.522622573E0
2.072012333E0,-1.658539331E0,-9.294997126E-1,1.359915011E0,2.337539575E0
2.082004333E0,-2.059658325E0,-1.110351169E-1,6.048815954E-1,2.149512260E0
2.091995333E0,-2.531536814E0,6.289230072E-1,1.436859691E-1,2.612444918E0
2.101987333E0,-2.655194023E0,1.451993455E0,5.077970579E-2,3.026700988E0
2.111978333E0,-2.152599233E0,2.199293928E0,3.575573833E-1,3.098132424E0
2.121970333E0,-1.382523270E0,2.692885467E0,7.210631391E-1,3.111741439E0
2.131961333E0,-1.177076086E0,2.988824746E0,8.720228983E-1,3.328513994E0
2.141953333E0,-1.252373898E0,3.200582246E0,7.949465096E-1,3.527620592E0
2.151944333E0,-8.912934208E-1,3.413480537E0,1.726555605E-1,3.532147120E0
2.161936333E0,-2.049913940E-1,3.590457628E0,-1.139349412E0,3.772469289E0
2.171927333E0,4.292060941E-1,3.499697147E0,-2.242851299E0,4.178813222E0
2.181919333E0,6.620308194E-1,3.290706550E0,-2.147843692E0,3.985005261E0
2.191910333E0,7.025865224E-1,3.266402013E0,-8.559449556E-1,3.449007350E0
2.201902333E0,9.957977825E-1,3.440560747E0,3.313023618E-1,3.597058900E0
2.211893333E0,1.694448836E0,3.900581083E0,1.055126556E0,4.381664260E0
2.221885333E0,2.545726252E0,4.338552153E0,1.487399515E0,5.245580450E0
2.231876333E0,3.176670934E0,4.618067772E0,2.318264886E0,6.065652500E0
2.241868333E0,3.368958668E0,4.792269775E0,3.671153882E0,6.913255596E0
2.251859333E0,3.488650295E0,4.759472743E0,4.768511953E0,7.586960387E0
2.261851333E0,3.714826736E0,4.533173218E0,5.402293997E0,7.970845471E0
2.271842250E0,3.856852096E0,4.089958364E0,5.358741596E0,7.766542281E0
2.281834250E0,4.080759525E0,3.427097533E0,4.420254128E0,6.923600389E0
2.291826250E0,3.515496324E0,2.457849618E0,3.538609782E0,5.560710237E0
2.301817250E0,1.997057888E0,1.537797251E0,4.032020059E0,4.755023275E0
2.311809250E0,5.861479935E-1,9.203897506E-1,4.551418869E0,4.680395335E0
2.321800250E0,-1.630091165E-1,1.862642241E-1,2.864702976E0,2.875376405E0
2.331792250E0,-2.141810243E-1,-6.961636484E-1,-8.361097383E-1,1.108871873E0
2.341783250E0,7.646659724E-2,-1.168642062E0,-4.744902358E0,4.887296778E0
2.351775250E0,-2.140089700E-1,-1.088143444E0,-5.937376209E0,6.040057305E0
2.361766250E0,-1.166705391E0,-1.161321348E0,-3.809690208E0,4.150133519E0
2.371758250E0,-1.755218364E0,-1.710119374E0,-1.577970546E0,2.914668219E0
2.381749250E0,-1.863606739E0,-2.447675462E0,-3.258618200E-1,3.093595185E0
2.391741250E0,-9.012339798E-1,-2.659539381E0,1.496372652E-1,2.812074629E0
2.401732250E0,7.166616476E-1,-2.834223779E0,9.045525670E-2,2.924826576E0
2.411724250E0,1.940335511E0,-3.227116910E0,-7.752253130E-1,3.844497331E0
2.421715250E0,2.340976202E0,-3.938699666E0,-2.131318584E0,5.053320052E0
2.431707250E0,1.815833379E0,-4.523814749E0,-3.270059154E0,5.869875435E0
2.441698250E0,4.030336280E-1,-4.222262143E0,-2.758832997E0,5.059752288E0
2.451690250E0,-1.380706248E0,-2.841510580E0,-7.668620405E-1,3.250939788E0
2.461681250E0,-2.943864335E0,-1.527154734E0,1.628933709E0,3.694856402E0
2.471673250E0,-2.877288815E0,-4.625439942E-1,3.326913971E0,4.422792607E0
2.481664250E0,-1.448132538E0,3.964353740E-1,3.893098986E0,4.172585357E0
2.491656250E0,-2.822918773E-2,9.764943695E-1,2.852723200E0,3.015355335E0
2.501647250E0,1.175967600E0,5.702801120E-1,1.209381075E0,1.780652068E0
2.511639250E0,2.050195483E0,-8.640038806E-1,1.421192077E-1,2.229350151E0
2.521630250E0,2.018897677E0,-2.535504150E0,2.765268150E-1,3.252875067E0
2.531622250E0,1.891255298E0,-3.913408120E0,5.495797992E-1,4.381055543E0
2.541613250E0,2.296123380E0,-5.020474323E0,1.020353749E-1,5.521571898E0
2.551605250E0,3.037161047E0,-5.828464217E0,-8.038912877E-1,6.621297724E0
2.561596250E0,3.411753269E0,-5.916678820E0,-1.292301317E0,6.951056850E0
2.571588250E0,2.735571311E0,-4.865392131E0,-5.761343443E-1,5.611356500E0
2.581579250E0,1.597426279E0,-3.459044965E0,5.151271275E-1,3.844752105E0
2.591571250E0,6.827378565E-1,-2.803832291E0,1.101276290E0,3.088756379E0
2.601562250E0,8.895798942E-1,-2.548007836E0,7.831222701E-1,2.810156012E0
2.611554250E0,1.617562628E0,-3.109966775E0,9.081018269E-3,3.505493498E0
2.621545250E0,2.044314938E0,-4.342090303E0,-5.358125299E-1,4.829085507E0
2.631537250E0,2.044375896E0,-5.313370126E0,-8.639670432E-1,5.758282205E0
2.641528250E0,1.976100736E0,-5.738805935E0,-8.838133702E-1,6.133513981E0
2.651520250E0,1.768020258E0,-5.901979505E0,-5.802013752E-1,6.188367422E0
2.661511250E0,1.327974595E0,-5.763946039E0,-3.729865775E-1,5.926694648E0
2.671503250E0,9.929102813E-1,-5.259598546E0,-1.715970683E-1,5.355249130E0
2.681494250E0,8.299355172E-1,-4.580072565E0,-1.707085839E-1,4.657789077E0
2.691486250E0,2.556105206E-1,-3.810590680E0,-2.878704134E-1,3.829987917E0
2.701477250E0,1.923712023E-2,-3.068484288E0,-3.311418557E-1,3.086360449E0
2.711469250E0,3.056040683E-1,-2.538688543E0,-3.058187342E-1,2.575239497E0
2.721461250E0,5.462606272E-1,-2.200764502E0,-1.292981641E-1,2.271229421E0
2.731452250E0,7.569125645E-1,-1.960630465E0,-1.936188519E-1,2.110563127E0
2.741444250E0,9.965849639E-1,-1.847648810E0,-4.763399148E-1,2.152646611E0
2.751435250E0,1.571030632E0,-2.016410564E0,-5.825526868E-1,2.621720130E0
2.761427250E0,2.087564161E0,-2.428021801E0,-8.119187839E-1,3.303396147E0
2.771418250E0,2.003410449E0,-2.928152282E0,-1.039138807E0,3.696963440E0
2.781410250E0,1.535430883E0,-3.620347425E0,-1.112660819E0,4.086866474E0
2.791401250E0,9.802115907E-1,-4.204943275E0,-1.147650558E0,4.467601651E0
2.801393250E0,4.266971270E-1,-4.506237434E0,-8.882306492E-1,4.612721533E0
2.811384250E0,3.586853843E-2,-4.889904243E0,-7.591861081E-1,4.948617343E0
2.821376250E0,-4.717376079E-1,-5.460245751E0,-6.579826458E-1,5.519942137E0
2.831367250E0,-1.020589173E0,-6.407702848E0,-5.450740810E-1,6.511325810E0
2.841359250E0,-1.167684069E0,-7.772458768E0,-7.464472179E-1,7.895048122E0
2.851350250E0,-1.389306040E0,-9.328147330E0,-9.091825385E-1,9.474762096E0
2.861342250E0,-1.833345205E0,-1.075272787E1,-8.994187117E-1,1.094491961E1
2.871333250E0,-2.042067415E0,-1.192795974E1,-6.434755576E-1,1.211859413E1
2.881325250E0,-2.224704319E0,-1.317734367E1,-6.139342546E-1,1.337791503E1
2.891316250E0,-2.330993689E0,-1.443472658E1,-4.798096526E-1,1.462959604E1
2.901308250E0,-2.276966878E0,-1.502240450E1,-8.434023857E-3,1.519398849E1
2.911299250E0,-2.058909589E0,-1.485373572E1,9.231572378E-1,1.502414033E1
2.921291250E0,-1.723772915E0,-1.440434679E1,1.596235055E0,1.459467594E1
2.931282250E0,-1.244175517E0,-1.389197399E1,1.591944515E0,1.403813383E1
2.941274250E0,-1.023505399E-1,-1.280445971E1,1.925562082E0,1.294883985E1
2.951265250E0,2.003183285E0,-1.053307370E1,3.200769356E0,1.118942847E1
2.961257250E0,3.482668886E0,-7.424716668E0,3.862010217E0,9.064795810E0
2.971248250E0,4.238901857E0,-4.155483432E0,3.724596848E0,7.007778050E0
2.981240250E0,4.877804600E0,-1.118194039E0,3.053066350E0,5.862128433E0
2.991231250E0,5.272027972E0,1.777179921E0,1.646596978E0,5.802062480E0
3.001223250E0,6.199294049E0,6.530639387E0,-7.736922315E0,1.187183492E1
3.011214250E0,8.300641267E0,9.421137355E0,-1.290287536E1,1.800396254E1
3.021206250E0,7.721569281E0,8.879640747E0,-6.531355087E0,1.345842677E1
3.031197250E0,5.774366947E0,8.857280409E0,-4.056666073E0,1.132480770E1
3.041189250E0,1.881011268E0,7.121047370E0,-1.418685668E0,7.500679173E0
3.051180250E0,-3.843579501E0,6.008390644E0,-2.015615927E0,7.411920741E0
3.061172250E0,-9.862386374E0,4.920640717E0,-1.409246800E0,1.111149615E1
3.071163250E0,-1.171761084E1,3.592635131E0,3.558583871E0,1.276216871E1
3.081155250E0,-1.160959990E1,4.224209266E0,7.390961276E0,1.439628641E1
3.091146250E0,-1.188323088E1,5.956139340E0,7.935846931E0,1.548109940E1
3.101138250E0,-1.182233330E1,7.368279342E0,7.262259382E0,1.570985412E1
3.111130250E0,-1.165817389E1,8.199241776E0,6.838542069E0,1.580842313E1
3.121121250E0,-1.118597030E1,9.221256720E0,5.846663675E0,1.563141014E1
3.131113250E0,-9.800902902E0,1.085190717E1,3.461303744E0,1.502671656E1
3.141104250E0,-8.170274085E0,1.166819368E1,2.585818271E0,1.447710532E1
3.151096250E0,-7.071665879E0,1.128474497E1,4.348155328E0,1.400929628E1
3.161087250E0,-5.823787029E0,1.131618311E1,4.965212288E0,1.366110642E1
3.171079250E0,-4.544314795E0,1.253878562E1,4.549826965E0,1.409158852E1
3.181070250E0,-3.567199451E0,1.366328705E1,4.632013089E0,1.486155679E1
3.191062250E0,-3.105164457E0,1.398831155E1,4.935452299E0,1.515498583E1
3.201053250E0,-2.724171287E0,1.385644865E1,5.366510791E0,1.510700885E1
3.211045250E0,-2.115755927E0,1.359071725E1,6.055822088E0,1.502853951E1
3.221036250E0,-1.275708527E0,1.351106999E1,6.990118271E0,1.526558869E1
3.231028250E0,4.189532939E-1,1.423694334E1,7.984610370E0,1.632850515E1
3.241019250E0,3.103383103E0,1.610378155E1,8.951160380E0,1.868384433E1
3.251011250E0,6.270431859E0,1.939456060E1,1.007105245E1,2.273528962E1
3.261002250E0,8.698426763E0,2.068543754E1,9.759772418E0,2.447045385E1
3.270994333E0,9.243235819E0,1.765487244E1,8.071221083E0,2.150061718E1
3.280985333E0,9.159327689E0,1.411759465E1,6.502198530E0,1.804101849E1
3.290977333E0,9.105341517E0,1.193551201E1,5.003551896E0,1.582400779E1
3.300968333E0,8.968416098E0,1.085163703E1,3.487522659E0,1.450356259E1
3.310960333E0,8.806636505E0,9.923885050E0,2.466954317E0,1.349541421E1
3.320951333E0,8.941950431E0,9.245683463E0,1.463859940E0,1.294542491E1
3.330943333E0,1.032158810E1,8.713008549E0,-2.195176757E0,1.368468121E1
3.340934333E0,1.194662405E1,8.362500715E0,-6.863254741E0,1.611699445E1
3.350926333E0,1.172857671E1,8.419805768E0,-7.574097825E0,1.630397493E1
3.360917333E0,1.052346322E1,8.326669562E0,-8.271188257E0,1.576354209E1
3.370909333E0,8.537175173E0,8.302762052E0,-5.900993664E0,1.329063369E1
3.380900333E0,7.131988680E0,8.802967377E0,-8.693591993E-1,1.136280259E1
3.390892333E0,6.543907304E0,9.178607129E0,2.047129934E0,1.145688843E1
3.400883333E0,6.150378581E0,9.494077862E0,3.700332073E0,1.190198003E1
3.410875333E0,5.573549588E0,9.830916660E0,4.469537970E0,1.215270122E1
3.420866333E0,5.021323339E0,9.988281605E0,4.831509855E0,1.217879078E1
3.430858333E0,4.488433832E0,1.011196659E1,4.253130180E0,1.185272217E1
3.440849333E0,2.215381372E-1,9.236243134E0,-1.611760144E-1,9.240305410E0
3.450841333E0,-9.648736716E0,6.943828204E0,-8.935593338E0,1.487143902E1
3.460832333E0,-1.891778916E-1,1.063650393E1,2.880908534E-1,1.064208629E1
3.470824333E0,-4.527059369E0,7.835417494E0,-7.587002045E0,1.180892179E1
3.480816333E0,-1.810836261E1,-4.012651742E0,-3.007559810E1,3.533490868E1
3.490807333E0,-1.152655891E1,-1.117814672E1,-8.875155348E0,1.834614147E1
3.500799333E0,-1.448457643E1,-2.243287326E1,4.096444388E0,2.701513675E1
3.510790333E0,-1.868120731E1,-3.115751543E1,1.267455095E1,3.847625912E1
3.520782333E0,-2.566476266E1,-5.294611206E1,1.112883832E1,5.988173233E1
3.530773333E0,-2.319191669E1,-6.754432679E1,8.658532380E0,7.193796817E1
3.540765333E0,-2.272655142E0,-5.309269006E1,3.021297258E0,5.322712594E1
3.550756333E0,1.009387063E1,-2.622311563E1,-2.842052032E0,2.824208344E1
3.560748333E0,7.423371808E0,-8.392226205E0,-5.821660981E0,1.262646610E1
3.570739333E0,3.105041665E0,-2.514109772E-1,-6.270138913E0,7.001366525E0
3.580731333E0,1.524156282E0,3.918097587E0,-5.308081319E0,6.771282623E0
3.590722333E0,2.117345054E0,6.252501372E0,-4.469459617E0,7.972013093E0
3.600714333E0,3.871054690E0,7.123883854E0,-3.519364257E0,8.838592102E0
3.610705333E0,5.897707529E0,6.866847855E0,-2.461574879E0,9.380613224E0
3.620697333E0,7.947068907E0,5.421480466E0,-6.227272245E-1,9.640339405E0
3.630688333E0,9.352063027E0,2.600079045E0,1.676638656E0,9.850513240E0
3.640680333E0,9.196344073E0,-1.136329764E0,3.822820716E0,1.002386891E1
3.650671333E0,7.632579337E0,-6.008215812E0,5.755851738E0,1.129091466E1
3.660663333E0,5.667949961E0,-1.054570837E1,7.561510524E0,1.416029884E1
3.670654333E0,4.120160987E0,-1.278129538E1,7.927357943E0,1.559423746E1
3.680646333E0,2.417498129E0,-1.309373082E1,6.364080280E0,1.475776412E1
3.690637333E0,4.634022193E-1,-1.161861631E1,3.148287088E0,1.204652224E1
3.700629333E0,-1.904453925E0,-9.359033493E0,-1.322368870E0,9.641945452E0
3.710620333E0,-2.916444695E0,-7.034499807E0,-4.435877888E0,8.812879770E0
3.720612333E0,-1.380314192E0,-5.779789070E0,-4.669153726E0,7.557263095E0
3.730603333E0,-5.108873114E-2,-6.062316590E0,-4.156744092E0,7.350701595E0
3.740595333E0,-3.195072853E-1,-7.331787454E0,-3.702562786E0,8.219863950E0
3.750586333E0,-1.017342141E0,-8.670358374E0,-2.460506592E0,9.069960973E0
3.760578333E0,-1.396642250E0,-9.621115054E0,-1.040123770E0,9.777439435E0
3.770569333E0,-1.284343257E0,-1.008400988E1,1.870863243E-1,1.016719205E1
3.780561333E0,-1.005984509E0,-1.033417131E1,1.135467299E0,1.044492161E1
3.790552333E0,-7.488191409E-1,-1.041535990E1,1.713353469E0,1.058187280E1
3.800544333E0,-6.017271322E-1,-1.016760168E1,1.921531888E0,1.036506074E1
3.810536333E0,-3.997416090E-1,-9.696752297E0,1.897910306E0,9.888825107E0
3.820527333E0,-1.765851087E-1,-9.489956744E0,1.657532440E0,9.635241310E0
3.830519333E0,-1.249814571E-1,-9.864189656E0,1.157772088E0,9.932688163E0
3.840510333E0,-1.430297653E-1,-1.099912018E1,1.628684179E-1,1.100125576E1
3.850502333E0,-3.992415990E-1,-1.306095133E1,-1.061112862E0,1.311006499E1
3.860493333E0,-4.679592468E-1,-1.534548421E1,-1.437198830E0,1.541974099E1
3.870485333E0,-2.133580287E-1,-1.737339917E1,-6.337292723E-1,1.738626278E1
3.880476333E0,-8.074873254E-2,-1.922881893E1,-7.686413482E-2,1.922914210E1
3.890468333E0,-2.519579843E-1,-1.948085498E1,-4.105784731E-1,1.948681011E1
3.900459333E0,-5.792555881E-1,-1.755535283E1,-1.306028095E0,1.761339432E1
3.910451333E0,4.347024769E-1,-1.227150237E1,-3.244945363E0,1.270072467E1
3.920442333E0,1.704925585E0,-5.846427448E0,-6.632400820E0,9.004233770E0
3.930434333E0,3.112398632E0,-3.822500288E-2,-1.092972426E1,1.136430195E1
3.940425333E0,6.116428478E0,2.389414390E0,-1.098768186E1,1.280035746E1
3.950417333E0,5.127250328E0,9.223935914E-1,-3.528408730E0,6.291992850E0
3.960408333E0,3.232490209E0,4.071287620E-1,1.607572807E0,3.633047909E0
3.970400333E0,3.022824843E0,8.497255647E-1,3.219964304E0,4.497518614E0
3.980391333E0,2.500864075E0,1.341322035E0,4.256919175E0,5.116133969E0
3.990383333E0,8.686091477E-1,2.091720947E0,6.074376472E0,6.482887312E0
4.000374333E0,-1.463677069E0,3.322883193E0,7.198736401E0,8.062611800E0
4.010366333E0,-2.545794665E0,4.865092753E0,7.480450573E0,9.279404008E0
4.020357333E0,-3.310916574E0,6.297457690E0,7.065304694E0,1.002689744E1
4.030349333E0,-4.187218026E0,7.789616253E0,6.099745202E0,1.074326802E1
4.040340333E0,-5.386970783E0,8.897619765E0,5.865546674E0,1.194117789E1
4.050332333E0,-6.492140735E0,1.009017986E1,6.258474888E0,1.353248421E1
4.060323333E0,-7.277142885E0,1.129729777E1,7.042156152E0,1.517160864E1
4.070315333E0,-8.096413227E0,1.256341643E1,7.824099623E0,1.687032526E1
4.080306333E0,-8.640995411E0,1.480605635E1,8.065952157E0,1.894586210E1
4.090298333E0,-8.641661409E0,1.703725678E1,7.610379213E0,2.056366461E1
4.100289333E0,-8.234609830E0,1.815260030E1,7.637046025E0,2.134596376E1
4.110281333E0,-8.435334803E0,1.793624981E1,8.006188935E0,2.137669273E1
4.120273333E0,-8.698965876E0,1.585889548E1,9.333620324E0,2.035418977E1
4.130264333E0,-7.172161975E0,1.690143298E1,1.072616163E1,2.126379287E1
4.140256333E0,-4.927510611E0,2.862679605E1,1.511126113E1,3.274330505E1
4.150247333E0,-4.409906018E0,3.075803365E1,2.000976136E1,3.695800935E1
4.160239333E0,-3.332047826E0,2.470521820E1,2.112211228E1,3.267405662E1
4.170230333E0,-2.007492098E0,1.992760798E1,1.760012613E1,2.666278350E1
4.180222333E0,-1.192029170E0,1.681463223E1,1.335397870E1,2.150538392E1
4.190213333E0,-1.390021740E0,1.541239390E1,1.011622102E1,1.848815767E1
4.200205333E0,-1.952746957E0,1.438371079E1,7.201889219E0,1.620406015E1
4.210196333E0,-2.291572638E0,1.346975357E1,4.757777342E0,1.446796501E1
4.220188333E0,-2.215733082E0,1.262255517E1,2.869633640E0,1.313290407E1
4.230179333E0,-1.863742102E0,1.168250766E1,1.336707412E0,1.190551581E1
4.240171333E0,-1.131773613E0,1.118524173E1,-1.305411067E0,1.131789036E1
4.250162333E0,2.164028201E-1,1.101295002E1,-6.014957067E0,1.255036281E1
4.260154333E0,6.953722277E-1,1.047156801E1,-5.103656813E0,1.166981542E1
4.270145333E0,1.030686583E0,9.778654246E0,-4.642125556E0,1.087353316E1
4.280137250E0,1.453679792E0,8.800553647E0,-5.497639865E0,1.047792792E1
4.290128250E0,8.547777052E-1,7.825552656E0,-4.430719475E0,9.033337941E0
4.300120250E0,-2.483042237E-1,7.406473355E0,-1.974617590E0,7.669199252E0
4.310111250E0,-5.986245995E-1,7.716378123E0,5.216584674E-1,7.757123842E0
4.320103250E0,-5.955010900E-1,8.100889855E0,2.616218530E0,8.533676663E0
4.330094250E0,-6.664855206E-1,8.016358413E0,3.573454802E0,8.802032968E0
4.340086250E0,-9.178211419E-1,7.800078092E0,4.123997930E0,8.870793246E0
4.350077250E0,-8.826200996E-1,7.726648757E0,4.513627438E0,8.991826950E0
4.360069250E0,-9.020217459E-1,7.618209220E0,4.736419510E0,9.015787526E0
4.370060250E0,-1.226298240E0,7.297805191E0,5.057010065E0,8.962986041E0
4.380052250E0,-1.850909364E0,6.787107621E0,5.432398971E0,8.888287457E0
4.390043250E0,-2.976713993E0,6.359262174E0,5.778589221E0,9.093576578E0
4.400035250E0,-4.079437177E0,5.652249602E0,4.840735299E0,8.486604237E0
4.410026250E0,-5.670522151E0,1.429969917E0,-6.563446945E0,8.790817438E0
4.420018250E0,-6.697285618E0,-3.054679012E-1,-9.207377769E0,1.138958957E1
4.430009250E0,-1.374240222E1,-2.267105257E0,-9.998228889E0,1.714520241E1
4.440001250E0,-2.124810574E1,-9.441578636E0,-1.261635829E1,2.645369353E1
4.449993250E0,-1.920098502E1,-1.107194491E1,-2.613254576E0,2.231803955E1
4.459984250E0,-2.203638994E1,-2.493340696E1,-1.551303852E1,3.671418838E1
4.469976250E0,-2.163281979E1,-2.338760663E1,1.158196128E1,3.389839027E1
4.479967250E0,-1.728650487E1,-2.962231025E1,1.325124663E1,3.676819348E1
4.489959250E0,-5.028349353E0,-3.731546849E1,5.616048321E0,3.806925905E1
4.499950250E0,1.122539339E1,-3.857442080E1,5.736108322E-1,4.017865635E1
4.509942250E0,1.954866163E1,-3.242414864E1,-5.799078450E-1,3.786570849E1
4.519933250E0,1.607253636E1,-2.366618435E1,-4.131101713E-1,2.861093090E1
4.529925250E0,6.697626511E0,-1.604313422E1,-1.800707217E0,1.747806920E1
4.539916250E0,-5.967668295E-2,-9.206877832E0,-1.112222278E0,9.274006638E0
4.549908250E0,-1.676805448E0,-1.474840865E0,4.002755329E-1,2.268711659E0
4.559899250E0,-7.336922479E-1,7.816070226E0,1.474036434E0,7.987618012E0
4.569891250E0,1.454430574E0,1.233850562E1,-7.963863865E-1,1.244943053E1
4.579882250E0,4.713303128E0,8.728429996E0,-4.069005744E0,1.072182467E1
4.589874250E0,7.394617540E0,6.105340403E0,-4.125470844E0,1.043911202E1
4.599865250E0,9.736025705E0,5.222085149E0,-2.300156936E0,1.128499410E1
4.609857250E0,1.105083062E1,3.895995696E0,1.273558652E0,1.178650039E1
4.619848250E0,1.060546340E1,1.195294840E0,4.256199091E0,1.148998757E1
4.629840250E0,8.060636453E0,-2.114208169E0,3.862818302E0,9.185047711E0
4.639831250E0,2.493440450E0,-3.367330218E0,2.952560607E0,5.125794788E0
4.649823250E0,-1.292688403E0,-2.255276340E0,3.169721811E0,4.099323241E0
4.659814250E0,-9.932694465E-1,3.132973230E-1,2.300155766E0,2.524966526E0
4.669806250E0,2.754369525E0,2.553602452E0,3.768188426E-1,3.774841639E0
4.679797250E0,7.238253638E0,1.710230471E0,-2.788244784E-3,7.437554152E0
4.689789250E0,7.994224362E0,-1.414290608E0,1.052464904E0,8.186300963E0
4.699780250E0,7.199110622E0,-4.115570338E0,1.871754249E0,8.501092691E0
4.709772250E0,5.797685058E0,-5.947742153E0,2.451873325E0,8.660281263E0
4.719763250E0,5.544678960E0,-6.697378589E0,1.962124429E0,8.913376297E0
4.729755250E0,5.650703014E0,-6.248525265E0,5.012949541E-1,8.439538445E0
4.739746250E0,5.107989015E0,-5.064008598E0,-6.136024252E-1,7.218880993E0
4.749738250E0,4.440048122E0,-3.973246771E0,-1.152197206E0,6.068630458E0
4.759729250E0,3.195061305E0,-3.453273178E0,-1.320228935E0,4.886360284E0
4.769721250E0,2.325411937E0,-3.564004825E0,-8.495386000E-1,4.339514593E0
4.779712250E0,2.285791204E0,-4.131153168E0,-4.824701357E-1,4.745950417E0
4.789704250E0,1.534327514E0,-4.929914401E0,-8.696587229E-1,5.235888006E0
4.799696250E0,7.257172304E-1,-5.401799322E0,-1.452491637E0,5.640552577E0
4.809687250E0,7.717248774E-1,-5.318274770E0,-1.913228696E0,5.704388649E0
4.819679250E0,7.597430554E-1,-5.074761043E0,-2.453446079E0,5.687689057E0
4.829670250E0,5.146836162E-1,-4.820244024E0,-2.454332517E0,5.433543943E0
4.839662250E0,6.583956054E-1,-4.495462770E0,-2.107637068E0,5.008473250E0
4.849653250E0,7.652944019E-1,-4.665629609E0,-1.663246340E0,5.012001951E0
4.859645250E0,6.701838845E-1,-4.964673759E0,-1.304558251E0,5.176775464E0
4.869636250E0,7.610124859E-1,-5.385473312E0,-9.903021307E-1,5.528395889E0
4.879628250E0,1.020791413E0,-5.946211352E0,-8.611628647E-1,6.094345415E0
4.889619250E0,1.394122392E0,-6.606893511E0,-1.137111536E0,6.847455130E0
4.899611250E0,1.614636389E0,-7.463469674E0,-1.395690615E0,7.762627296E0
4.909602250E0,2.001498117E0,-8.424674159E0,-1.493314558E0,8.786985705E0
4.919594250E0,2.332812027E0,-9.451993112E0,-1.514619327E0,9.852728427E0
4.929585250E0,2.388458663E0,-1.039511333E1,-1.473491182E0,1.076727877E1
4.939577250E0,2.262977123E0,-1.112219238E1,-1.075428089E0,1.140091112E1
4.949568250E0,2.171799442E0,-1.218200840E1,-8.523648517E-1,1.240340950E1
4.959560250E0,2.587205815E0,-1.411423484E1,-7.101417097E-1,1.436696072E1
4.969551250E0,4.328306369E0,-1.654569539E1,4.496529302E-1,1.710837397E1
4.979543250E0,7.277558622E0,-1.919741588E1,2.989052203E0,2.074700144E1
4.989534250E0,1.038075491E1,-2.130472784E1,5.001876669E0,2.422127724E1
4.999526250E0,1.059382160E1,-1.902127435E1,5.589863319E0,2.247853434E1
5.009517250E0,8.056904760E0,-1.227202161E1,4.656835689E0,1.540137485E1
5.019509250E0,6.558642288E0,-6.892142910E0,3.468864194E0,1.012671918E1
5.029500250E0,5.068992764E0,-1.833520768E0,1.931180086E0,5.725901028E0
5.039492250E0,2.266809388E0,4.965301166E0,-3.417933776E0,6.440101844E0
5.049483250E0,2.928361028E0,8.797326568E0,-1.030591873E1,1.386290785E1
5.059475250E0,6.837539272E0,6.851606503E0,-4.766114595E0,1.078945334E1
5.069466250E0,7.009343916E0,7.485195588E0,-1.989756031E0,1.044596497E1
5.079458250E0,7.356777869E0,1.010431843E1,-6.419432362E0,1.405092678E1
5.089450250E0,5.570251758E0,1.062256651E1,-8.975394166E0,1.498079852E1
5.099441250E0,4.788092671E-1,8.317542059E0,-4.724056742E0,9.577446232E0
5.109433250E0,-3.933444481E0,5.405382496E0,1.589656938E0,6.871473976E0
5.119424250E0,-5.969825333E0,4.002287552E0,5.364595828E0,8.968612409E0
5.129416250E0,-7.961088191E0,3.661062757E0,6.887389709E0,1.114533278E1
5.139407250E0,-1.109130037E1,3.703545703E0,5.117789533E0,1.276420637E1
5.149399250E0,-1.374266300E1,4.157960313E0,3.219830110E0,1.471450734E1
5.159390250E0,-1.340530205E1,5.201034003E0,3.796372005E0,1.487162796E1
5.169382250E0,-1.160807027E1,6.853494569E0,5.046437130E0,1.439389492E1
5.179373250E0,-9.769353665E0,9.079974541E0,4.448752580E0,1.405978692E1
5.189365250E0,-7.482363782E0,1.306216287E1,-1.667998664E0,1.514556325E1
5.199356250E0,-5.977289888E0,1.323771266E1,1.013255814E0,1.455993538E1
5.209348250E0,-6.001640618E0,1.103861461E1,5.206929166E0,1.360083873E1
5.219339250E0,-5.349985975E0,1.039430057E1,5.690154762E0,1.300160357E1
5.229331250E0,-5.233349226E0,1.068590940E1,7.259094284E0,1.393811514E1
5.239322250E0,-5.254437793E0,1.194695384E1,9.981206474E0,1.643056010E1
5.249314250E0,-4.960438036E0,1.559732262E1,1.294663125E1,2.086858115E1
5.259305250E0,-4.709750067E0,2.472144072E1,1.682060691E1,3.026985619E1
5.269297250E0,-1.588750473E0,3.006868435E1,1.787967917E1,3.501903531E1
5.279288208E0,1.530149678E0,2.822376151E1,1.721237270E1,3.309362244E1
5.289280208E0,2.526797353E0,2.397012964E1,1.679510019E1,2.937732476E1
5.299271208E0,1.628422077E0,1.876467748E1,1.611464216E1,2.478803283E1
5.309263208E0,-4.991086802E-1,1.431244025E1,1.435480099E1,2.027696641E1
5.319254208E0,-2.379593699E0,1.247031940E1,1.222775701E1,1.762638289E1
5.329246208E0,-3.315528565E0,1.162973303E1,1.016959090E1,1.580075945E1
5.339237208E0,-3.498740250E0,1.118396938E1,8.295503903E0,1.435749767E1
5.349229208E0,-3.382448194E0,1.073736840E1,6.514763027E0,1.300669725E1
5.359220208E0,-3.341364780E0,1.034323800E1,4.783522633E0,1.187557913E1
5.369212208E0,-3.429339063E0,9.998228889E0,3.169179189E0,1.103488306E1
5.379204208E0,-4.093006810E0,1.016035581E1,-1.517358601E0,1.105838650E1
5.389195208E0,-6.382577362E0,1.171554677E1,-1.378895775E1,1.918662778E1
5.399187208E0,-4.663526950E0,1.107518076E1,-6.227133812E0,1.353459671E1
5.409178208E0,-2.897718694E0,1.010755779E1,-8.601792169E-1,1.054985338E1
5.419170208E0,-2.094255423E0,9.343361201E0,1.389544022E0,9.675491558E0
5.429161208E0,-1.634206728E0,8.703979864E0,2.642275185E0,9.241835058E0
5.439153208E0,-1.490462286E0,8.283817658E0,2.618355980E0,8.814698001E0
5.449144208E0,-1.618115483E0,7.882972898E0,2.372689892E0,8.389828172E0
5.459136208E0,-1.714512826E0,7.514421142E0,2.044509066E0,7.974089079E0
5.469127208E0,-1.845175876E0,7.066251358E0,1.701656845E0,7.498814459E0
5.479119208E0,-2.107409904E0,6.524696277E0,1.883750689E0,7.110650791E0
5.489110208E0,-2.177425195E0,5.939864200E0,2.519466991E0,6.809616811E0
5.499102208E0,-2.415668681E0,5.125172812E0,3.217785923E0,6.515903451E0
5.509093208E0,-3.110929519E0,4.279657243E0,3.557136978E0,6.375466420E0
5.519085208E0,-3.670323578E0,2.666119253E0,2.859947728E-1,4.545465878E0
5.529076208E0,-2.898332359E0,-9.480190140E-1,-8.279029373E0,8.822777220E0
5.539068208E0,-3.944784864E0,-1.259325360E0,-3.726131450E0,5.570573002E0
5.549059208E0,-9.656401831E0,-9.380044293E0,-5.994667228E0,1.473659942E1
5.559051208E0,-9.238270363E0,-2.493394958E1,-1.659645390E1,3.134469275E1
5.569042208E0,-5.886698976E0,-2.361392896E1,-9.117481506E-1,2.435368864E1
5.579034208E0,-1.412430141E1,-3.169399045E1,1.221840147E1,3.678714796E1
5.589025208E0,-1.327906885E1,-4.425307993E1,9.463585217E0,4.716172387E1
5.599017208E0,-1.373669416E0,-4.485365915E1,2.708244349E0,4.495633764E1
5.609008208E0,9.300909830E0,-3.154051507E1,-3.737958906E0,3.309506536E1
5.619000208E0,1.027177333E1,-1.958438227E1,-2.531777719E0,2.225909375E1
5.628991208E0,8.661955925E0,-1.189038787E1,-2.832461429E0,1.498110950E1
5.638983208E0,1.033047470E1,-4.767167094E0,-5.806171707E0,1.277326190E1
5.648975208E0,1.417121596E1,2.813273206E0,-8.897777056E0,1.696786093E1
5.658966208E0,1.483325877E1,3.670230607E0,-6.336604214E0,1.654233089E1
5.668958208E0,1.009486348E1,-1.165804408E0,1.259101996E0,1.023966340E1
5.678949208E0,3.054069148E0,-5.200692526E0,4.812458164E0,7.715846985E0
5.688941208E0,-6.779144883E-1,-4.893546474E0,5.918858078E0,7.709685213E0
5.698932208E0,-1.531522020E0,-2.992324889E0,6.184402360E0,7.038920406E0
5.708924208E0,-6.373055756E-1,5.303716958E-2,5.113217010E0,5.153053419E0
5.718915208E0,1.911673483E0,4.693789215E0,2.231011272E0,5.537469097E0
5.728907208E0,5.194179897E0,8.275747331E0,-1.557353556E0,9.894081503E0
5.738898208E0,8.463994346E0,6.046810359E0,-2.822609747E0,1.077822998E1
5.748890208E0,1.153316276E1,2.147374746E0,-2.570355309E0,1.200965395E1
5.758881208E0,1.299007606E1,-2.728951094E0,-2.110346375E0,1.344034270E1
5.768873208E0,1.045034379E1,-8.186059229E0,-7.046242771E-1,1.329352272E1
5.778864208E0,6.170578957E0,-1.033469171E1,1.426969126E0,1.212097926E1
5.788856208E0,5.612693188E0,-9.248664958E0,2.344048183E0,1.106953884E1
5.798847208E0,6.226621011E0,-6.161409938E0,1.216121161E0,8.843796262E0
5.808839208E0,4.669948363E0,-3.173380998E0,4.686438096E-1,5.665544254E0
5.818830208E0,3.299272136E0,-2.755550078E0,1.048932016E0,4.424761150E0
5.828822208E0,2.874633302E0,-3.406655667E0,1.642201187E0,4.750330956E0
5.838813208E0,2.498970746E0,-4.328602531E0,1.523913915E0,5.225319922E0
5.848805208E0,1.905039232E0,-5.747493728E0,7.156394081E-1,6.097130341E0
5.858796208E0,1.136654869E0,-7.120208294E0,-8.434012163E-1,7.259523129E0
5.868788208E0,4.061797589E-1,-7.972584987E0,-2.177727642E0,8.274635403E0
5.878779208E0,2.799108911E-1,-7.764286115E0,-3.114154551E0,8.370211918E0
5.888771208E0,-9.859779686E-2,-6.538790406E0,-3.290996572E0,7.320939826E0
5.898762208E0,-8.527140766E-2,-4.800904943E0,-2.161096991E0,5.265576862E0
5.908754208E0,9.742601484E-2,-3.205453561E0,-1.277142996E0,3.451886237E0
5.918746208E0,1.871322432E-1,-1.857086216E0,-5.062683034E-1,1.933932596E0
5.928737208E0,4.504449356E-1,-8.477258170E-1,5.319995606E-1,1.097525960E0
5.938729208E0,2.940433189E-1,-5.158185607E-1,7.993399613E-1,9.957281932E-1
5.948720208E0,1.026274055E-2,-8.235586900E-1,1.108158536E0,1.380713432E0
5.958712208E0,-5.632529283E-1,-1.791688617E0,9.601865581E-1,2.109350656E0
5.968703208E0,-9.997969857E-1,-2.998420612E0,8.265401852E-1,3.266999978E0
5.978695208E0,-1.390877772E0,-4.457140118E0,8.870350398E-2,4.669957957E0
5.988686208E0,-1.554306572E0,-6.158103923E0,-1.117231003E0,6.448745456E0
5.998678208E0,-1.307311120E0,-7.746619338E0,-2.199091029E0,8.158135503E0
6.008669208E0,-5.894139558E-1,-9.183991830E0,-2.963268321E0,9.668199102E0
6.018661208E0,3.868789771E-1,-1.065035949E1,-3.731528138E0,1.129177289E1
6.028652208E0,1.128599671E0,-1.204678218E1,-4.103957183E0,1.277658650E1
6.038644208E0,1.674632038E0,-1.339955657E1,-3.791168568E0,1.402588564E1
6.048635208E0,2.632292233E0,-1.468438983E1,-2.438623534E0,1.511645301E1
6.058627208E0,4.003601129E0,-1.630070641E1,-1.174460188E0,1.682620600E1
6.068618208E0,6.249329258E0,-1.889542707E1,-3.018800497E-2,1.990206501E1
6.078610208E0,1.003654101E1,-2.135786968E1,2.612066714E0,2.374265455E1
6.088601208E0,1.340472902E1,-2.186831757E1,5.414623436E0,2.621503806E1
6.098593208E0,1.294872572E1,-1.691712456E1,5.974656887E0,2.212589267E1
6.108584208E0,1.056550821E1,-1.021829236E1,4.684127276E0,1.542674660E1
6.118576208E0,8.061640420E0,-4.418963647E0,3.599506195E0,9.872878548E0
6.128567208E0,5.369041466E0,1.561014206E0,7.940552478E-1,5.647468048E0
6.138559208E0,3.835321478E0,6.902392495E0,-9.564227493E0,1.240270779E1
6.148550208E0,8.033630503E0,6.340945771E0,-9.706137078E0,1.410517314E1
6.158542208E0,9.407326816E0,5.435646515E0,-2.045389949E0,1.105566239E1
6.168534208E0,9.062783727E0,7.849420406E0,-2.362594382E0,1.222003690E1
6.178525208E0,7.994927198E0,1.013625826E1,-7.590938390E0,1.497614564E1
6.188517208E0,-2.863192932E-1,7.001844277E0,-6.687335411E0,9.686498693E0
6.198508208E0,-8.045985669E0,3.125933767E0,-8.720841479E-1,8.675821464E0
6.208500208E0,-1.115565950E1,1.835966073E0,2.355513403E0,1.154850439E1
6.218491208E0,-1.325557006E1,2.261804756E0,2.317471418E0,1.364538647E1
6.228483208E0,-1.430379573E1,3.141197339E0,2.719936441E0,1.489509138E1
6.238474208E0,-1.441911101E1,3.639271939E0,4.317065974E0,1.548522267E1
6.248466208E0,-1.406257352E1,4.804242534E0,6.026418779E0,1.603603579E1
6.258457208E0,-1.364513027E1,6.510041401E0,6.388028136E0,1.641271223E1
6.268449208E0,-1.272982000E1,8.224935027E0,5.629788108E0,1.616763395E1
6.278439833E0,-1.191902286E1,9.904867566E0,3.625427194E0,1.591581697E1
6.288431833E0,-1.126573684E1,1.028646621E1,3.777738976E0,1.571621855E1
6.298422833E0,-1.042157198E1,9.694291788E0,4.572438148E0,1.494977078E1
6.308414833E0,-1.035327884E1,9.801166611E0,5.579905511E0,1.530975490E1
6.318405833E0,-1.077529578E1,1.042252391E1,8.186115947E0,1.708064689E1
6.328397833E0,-1.048448568E1,1.248319965E1,1.057084906E1,1.942929652E1
6.338388833E0,-9.483718350E0,1.618326392E1,1.336680164E1,2.303280988E1
6.348380833E0,-8.231041859E0,2.929500416E1,1.821361600E1,3.546382843E1
6.358371833E0,-5.783507314E0,4.156966637E1,2.151258466E1,4.716224568E1
6.368363833E0,-1.757712786E0,3.333285273E1,2.184294533E1,3.989088725E1
6.378354833E0,-1.342153216E0,2.431547321E1,2.115512332E1,3.225806652E1
6.388346833E0,-4.332543262E0,1.719713837E1,1.921822144E1,2.615057427E1
6.398338833E0,-7.552666025E0,1.228536495E1,1.645291294E1,2.187855801E1
6.408329833E0,-8.629573460E0,1.015584760E1,1.349115204E1,1.896370117E1
6.418321833E0,-7.990937058E0,9.316908982E0,1.059342399E1,1.621358997E1
6.428312833E0,-6.822778561E0,8.986689232E0,8.199570390E0,1.394789752E1
6.438304833E0,-5.754029161E0,8.842249557E0,6.377137697E0,1.232729143E1
6.448295833E0,-4.929377042E0,8.677282062E0,4.991687311E0,1.115844632E1
6.458287833E0,-4.340651888E0,8.526668311E0,3.889240408E0,1.032819066E1
6.468278833E0,-3.867887546E0,8.411907933E0,2.633649080E0,9.625843164E0
6.478270833E0,-2.775452830E0,8.282508466E0,-1.117325728E0,8.806333044E0
6.488261833E0,-8.204821774E-1,8.080912258E0,-5.118568382E0,9.600733108E0
6.498253833E0,-1.438208790E0,7.805932324E0,-1.033847369E0,8.004365331E0
6.508244833E0,-1.804086176E0,7.840369501E0,1.184002405E0,8.131911370E0
6.518236833E0,-1.735593062E0,7.939210834E0,1.914363202E0,8.349139980E0
6.528227833E0,-1.521568304E0,7.933532018E0,1.913916182E0,8.301757377E0
6.538219833E0,-1.297309458E0,7.578662161E0,1.144692598E0,7.773638345E0
6.548210833E0,-1.100152529E0,6.989894323E0,-2.689789367E-1,7.081052739E0
6.558202833E0,-9.065733647E-1,6.188790695E0,-1.806011080E0,6.510351876E0
6.568193833E0,-6.161930341E-1,5.217120278E0,-2.784041805E0,5.945496332E0
6.578185833E0,-4.440780121E-1,4.546442889E0,-1.135916365E0,4.707191754E0
6.588176833E0,-6.420453286E-1,4.139262671E0,9.311968669E-1,4.291019141E0
6.598168833E0,-9.996478086E-1,3.503528827E0,2.178392178E0,4.244926674E0
6.608159833E0,-8.746604311E-1,1.281278731E0,-1.405496688E0,2.093353051E0
6.618151833E0,3.162975659E-1,-1.252917981E0,-5.069081057E0,5.231197796E0
6.628143833E0,-1.219648128E0,-6.310788757E-1,2.638199383E0,2.974205455E0
6.638134833E0,-8.678217031E0,-1.056989011E1,-7.709652071E0,1.569945104E1
6.648126833E0,-5.885054739E0,-1.497832936E1,-6.363296753E0,1.730536810E1
6.658117833E0,-2.552473062E0,-1.264026288E1,6.065751829E0,1.425077926E1
6.668109833E0,-3.418381088E0,-2.253229697E1,8.880428367E0,2.445918527E1
6.678100833E0,-1.843855868E0,-4.369622386E1,6.289942263E0,4.418510108E1
6.688092833E0,7.790262955E0,-5.859483111E1,-4.495675024E0,5.928113969E1
6.698083833E0,1.135667157E1,-4.875876656E1,-1.327398411E1,5.179372510E1
6.708075833E0,5.854186703E0,-2.803403106E1,-7.478142092E0,2.959900350E1
6.718066833E0,6.836366905E0,-1.078633065E1,-8.799624524E0,1.550852130E1
6.728058833E0,6.461766788E0,-1.465592909E-1,-9.114988253E0,1.117402884E1
6.738049833E0,6.047823097E0,3.294958060E0,-6.103327206E0,9.202364686E0
6.748041833E0,3.717186087E0,-8.191440421E-1,-9.436806723E-1,3.921607143E0
6.758032833E0,-1.440217162E0,-6.424326482E0,6.333031565E0,9.135287900E0
6.768024833E0,-5.516572564E0,-9.186081040E0,1.119878856E1,1.549933944E1
6.778015833E0,-5.191054561E0,-7.659619786E0,1.145865988E1,1.472812645E1
6.788007833E0,-4.344136244E-1,-3.526817118E0,8.218117758E0,8.953469365E0
6.797998833E0,2.396125240E0,-2.853909016E-1,4.732927553E0,5.312576339E0
6.807990833E0,5.532585749E0,2.928430025E0,1.056265886E-1,6.260699997E0
6.817981833E0,1.003936522E1,4.475492774E0,-3.647049905E0,1.158101302E1
6.827973833E0,1.216070933E1,1.739924971E0,-2.442171771E0,1.252495083E1
6.837964833E0,1.096744347E1,-8.325733423E-1,-1.417705674E0,1.108999027E1
6.847956833E0,8.799698784E0,-2.899360592E0,2.369066665E-1,9.268069664E0
6.857948833E0,5.209793133E0,-6.073108211E0,2.640617499E0,8.425998374E0
6.867939833E0,2.916606370E0,-8.174957705E0,3.789938606E0,9.471016885E0
6.877931833E0,4.642681042E0,-8.734579512E0,2.678479097E0,1.024800550E1
6.887922833E0,5.393316182E0,-8.144872026E0,8.450292273E-1,9.805145290E0
6.897914833E0,5.239524470E0,-7.257411456E0,-4.246971600E-1,8.961194417E0
6.907905833E0,3.691396358E0,-6.622007979E0,-7.965053773E-1,7.623110754E0
6.917897833E0,2.539512416E0,-6.351988238E0,1.070613492E-1,6.841662080E0
6.927888833E0,3.374897100E0,-6.040022326E0,1.067477045E0,7.000807623E0
6.937880833E0,3.726481991E0,-6.198143317E0,1.389208538E0,7.364343077E0
6.947871833E0,3.911325634E0,-6.692075164E0,7.133803363E-1,7.784038137E0
6.957863833E0,4.038610163E0,-7.046307090E0,-6.435128336E-1,8.147080730E0
6.967854833E0,3.470195898E0,-6.950812703E0,-2.397411042E0,8.130414289E0
6.977846833E0,2.102086306E0,-5.950609628E0,-3.559062173E0,7.245374065E0
6.987837833E0,1.272487735E0,-4.526534289E0,-3.775222042E0,6.030011540E0
6.997829833E0,5.262932628E-1,-3.222920948E0,-2.954727877E0,4.403932432E0
7.007820833E0,-2.456026456E-1,-2.283817769E0,-1.350211118E0,2.664435085E0
7.017812833E0,-9.704433784E-1,-1.628204561E0,1.539198390E-1,1.901710220E0
7.027803833E0,-1.594026124E0,-1.097517115E0,9.855562381E-1,2.171815876E0
7.037795833E0,-2.293751603E0,-5.695895559E-1,1.067597352E0,2.593355507E0
7.047786833E0,-2.728418412E0,-1.802924627E-1,1.159159048E0,2.969919545E0
7.057778833E0,-2.442299386E0,-5.958429694E-2,1.553749040E0,2.895256925E0
7.067770833E0,-2.109396203E0,-3.612906843E-1,1.607488461E0,2.676584101E0
7.077761833E0,-1.726686729E0,-1.218145174E0,1.748423753E0,2.742683056E0
7.087753833E0,-1.236868690E0,-2.421937773E0,1.761248013E0,3.240003286E0
7.097744833E0,-8.221856906E-1,-4.282859178E0,1.247874173E0,4.536084435E0
7.107736833E0,-2.951626222E-1,-7.392237139E0,-2.413121780E-1,7.402062041E0
7.117727833E0,4.849256739E-1,-1.219268191E1,-2.442887177E0,1.244445028E1
7.127719833E0,1.307151930E0,-1.766616692E1,-4.231991326E0,1.821295831E1
7.137710833E0,1.560274972E0,-2.174661596E1,-4.872270795E0,2.234029513E1
7.147702833E0,2.078865843E0,-2.350655303E1,-3.341024179E0,2.383363508E1
7.157693833E0,3.937205703E0,-2.335610183E1,-4.433567946E-1,2.368977937E1
7.167685833E0,7.781772214E0,-2.179187575E1,2.134695643E0,2.323787324E1
7.177676833E0,1.058625998E1,-1.826281915E1,3.957321879E0,2.147696114E1
7.187668833E0,1.080127028E1,-1.117003663E1,4.268098467E0,1.611377742E1
7.197659833E0,9.619774872E0,-4.305855108E0,2.265274348E0,1.078016348E1
7.207651833E0,8.007339082E0,1.663308905E0,-3.030011948E0,8.721527854E0
7.217642833E0,8.337083454E0,5.531974130E0,-9.674193739E0,1.391760478E1
7.227634833E0,9.999127021E0,5.242940998E0,-4.926438231E0,1.231831016E1
7.237625833E0,9.744263263E0,5.733980813E0,-2.241670454E-1,1.130837979E1
7.247617833E0,9.590182114E0,7.701916205E0,-1.713377004E0,1.241880699E1
7.257608833E0,7.918444448E0,9.374602289E0,-4.261501054E0,1.299020099E1
7.267600833E0,2.080450146E0,7.546682569E0,-1.855423268E0,8.045078379E0
7.277593833E0,-4.087596382E0,4.679415005E0,1.355839648E0,6.359533797E0
7.287584833E0,-8.195413604E0,3.319172550E0,3.195967623E0,9.401910423E0
7.297576833E0,-1.071285571E1,3.541545669E0,2.359875426E0,1.152722148E1
7.307567833E0,-1.221817811E1,4.247709226E0,2.758399133E-1,1.293843103E1
7.317559833E0,-1.237309073E1,4.988747331E0,-4.109260900E-1,1.334727816E1
7.327550833E0,-1.137828405E1,6.340532958E0,5.631966488E-1,1.303782561E1
7.337542833E0,-9.951600852E0,7.557485885E0,1.730538582E0,1.261525728E1
7.347533833E0,-9.191710154E0,8.787331338E0,1.609392168E0,1.281775607E1
7.357525833E0,-8.594862633E0,9.758799441E0,1.296631619E0,1.306855324E1
7.367516833E0,-8.040038466E0,1.004244086E1,1.768204007E0,1.298535261E1
7.377508833E0,-7.880508882E0,1.017810094E1,2.500283446E0,1.311287826E1
7.387499833E0,-8.405916291E0,1.017147253E1,3.819306539E0,1.373700785E1
7.397491833E0,-8.916185845E0,1.013055372E1,6.558755139E0,1.500479116E1
7.407482833E0,-9.779152429E0,1.046198560E1,9.384398714E0,1.712167936E1
7.417474833E0,-1.018986203E1,1.243740191E1,1.142392274E1,1.972379946E1
7.427465833E0,-9.756919561E0,1.780841097E1,1.372039330E1,2.450685971E1
7.437457833E0,-1.104028926E1,2.192303581E1,1.652475301E1,2.959011571E1
7.447448833E0,-1.250843623E1,2.180698028E1,1.819920144E1,3.103572617E1
7.457440833E0,-1.075953520E1,2.111044825E1,1.690555176E1,2.910698032E1
7.467432833E0,-7.421588992E0,1.983715156E1,1.430091656E1,2.555599302E1
7.477423833E0,-5.450221285E0,1.821643435E1,1.192868480E1,2.244631180E1
7.487415833E0,-5.432221216E0,1.586964500E1,9.997997339E0,1.952727862E1
7.497406833E0,-5.822031695E0,1.371635872E1,8.330290158E0,1.707127071E1
7.507398833E0,-5.894098043E0,1.234692912E1,6.938339422E0,1.534039127E1
7.517389833E0,-5.968880423E0,1.132699227E1,5.741530738E0,1.403187310E1
7.527381833E0,-5.903059486E0,1.053410164E1,4.663117353E0,1.294442244E1
7.537372833E0,-5.705475637E0,9.909982710E0,3.772104891E0,1.204113719E1
7.547364833E0,-5.485158398E0,9.575566413E0,2.536323052E0,1.132304594E1
7.557355833E0,-5.633606340E0,1.054473188E1,-5.374237302E0,1.310768162E1
7.567347833E0,-4.431570829E0,1.094884816E1,-7.193052907E0,1.382953745E1
7.577338833E0,-3.341757713E0,9.936139644E0,-1.800252742E0,1.063649969E1
7.587330833E0,-3.404231119E0,9.059392927E0,1.151320270E0,9.746123746E0
7.597321833E0,-3.493334499E0,8.614881161E0,2.548544903E0,9.639224266E0
7.607313833E0,-3.245266668E0,8.405683572E0,2.844202638E0,9.448638034E0
7.617304833E0,-2.841113554E0,8.254262906E0,2.582730941E0,9.103586187E0
7.627296833E0,-2.456670819E0,7.974787633E0,2.065288170E0,8.596387877E0
7.637288833E0,-2.236223772E0,7.624048249E0,1.332311768E0,8.056169258E0
7.647279833E0,-2.179178336E0,7.335767654E0,1.107787750E0,7.732366972E0
7.657271833E0,-2.052690929E0,7.150967572E0,1.728237264E0,7.637845332E0
7.667262833E0,-2.096321244E0,6.737876405E0,2.362407124E0,7.441405017E0
7.677254833E0,-1.548154717E0,4.145117489E0,-3.153094668E0,5.433303600E0
7.687245833E0,1.222402313E0,-2.417058856E0,-1.812430796E1,1.832558267E1
7.697237833E0,-2.754166042E0,1.292951528E0,-8.870729005E-1,3.169235329E0
7.707228833E0,-7.605200919E0,-3.248979065E0,6.808179232E-1,8.298099724E0
7.717220833E0,-7.721478649E0,-1.924115422E1,-8.429864148E0,2.238092621E1
7.727211833E0,-5.769036040E0,-2.638218328E1,-2.447016481E0,2.711621768E1
7.737203833E0,-1.223728330E1,-3.340076697E1,1.424838985E1,3.831943306E1
7.747194833E0,-1.459784051E1,-5.451346523E1,1.390729136E1,5.812252224E1
7.757186833E0,-5.939773568E0,-5.962797798E1,7.216165781E0,6.035602469E1
7.767177833E0,1.185689268E1,-4.089419602E1,-7.159353064E0,4.317612197E1
7.777169833E0,1.272209817E1,-2.182142524E1,-8.890093229E0,2.677797862E1
7.787160833E0,6.458871832E0,-1.219163876E1,-6.353319649E0,1.518939603E1
7.797152833E0,5.216833765E0,-4.874447129E0,-7.701710383E0,1.050199658E1
7.807144833E0,6.947172811E0,9.675264949E-1,-1.059143944E1,1.270346044E1
7.817135833E0,9.915965581E0,2.236123785E0,-8.370856386E0,1.316806211E1
7.827127833E0,1.131012656E1,-1.376256225E0,5.389764583E-1,1.140629386E1
7.837118833E0,1.022357356E1,-4.836396958E0,7.248671622E0,1.343337010E1
7.847110833E0,4.841071807E0,-5.915885938E0,9.046863513E0,1.184396142E1
7.857101833E0,-2.524124299E0,-4.853772544E0,8.863894780E0,1.041628254E1
7.867093833E0,-4.343836282E0,-2.853781546E0,8.409734523E0,9.886183162E0
7.877084833E0,-2.395034734E0,4.021521968E-1,7.147752188E0,7.549058161E0
7.887076833E0,1.806163985E-1,6.079499218E0,5.495627253E0,8.197246607E0
7.897067833E0,8.329183280E-1,9.281043915E0,2.805046173E0,9.731382899E0
7.907059833E0,1.123692761E0,8.042387878E0,-1.212060269E0,8.210467605E0
7.917050833E0,5.533533583E0,6.378197798E0,-3.753087991E0,9.240512460E0
7.927042833E0,1.029390855E1,1.893822518E0,-3.670389359E-1,1.047310052E1
7.937033833E0,1.248822942E1,-3.453441578E0,2.166525692E0,1.313681721E1
7.947025833E0,1.137430326E1,-7.404751934E0,3.237870232E0,1.395309749E1
7.957017833E0,7.606282654E0,-1.014319306E1,4.059990799E0,1.331252893E1
7.967008833E0,5.179163663E0,-1.102931052E1,3.095943690E0,1.257196461E1
7.977000833E0,4.393865644E0,-8.625834750E0,-2.159829900E-1,9.682857485E0
7.986991833E0,1.954741734E0,-5.497902989E0,-2.813256834E0,6.477836563E0
7.996983833E0,-8.469463831E-1,-5.301854619E0,-3.039269260E0,6.169614106E0
8.006974833E0,-1.570304847E-1,-5.995300482E0,-1.706487815E0,6.235413948E0
8.016966833E0,1.242137470E0,-6.191465212E0,-6.466681373E-1,6.347860005E0
8.026957833E0,1.180540561E0,-6.090857434E0,-4.548712778E-1,6.220862334E0
8.036949833E0,1.668808796E0,-5.925688210E0,-6.188108325E-1,6.187215077E0
8.046940833E0,1.904553913E0,-5.560109178E0,-1.159112124E0,5.990465808E0
8.056932833E0,1.345227390E0,-5.195860972E0,-1.421927072E0,5.552340458E0
8.066923833E0,1.140553792E0,-4.684047754E0,-1.036926440E0,4.931164442E0
8.076915833E0,1.185908890E0,-4.094977614E0,-1.054285727E0,4.391667104E0
8.086906833E0,1.065708847E0,-3.628660997E0,-8.751654844E-1,3.881859168E0
8.096898833E0,1.028137563E0,-3.231695280E0,-6.403800416E-1,3.451232798E0
8.106890833E0,9.019929484E-1,-3.078263172E0,-2.423062778E-1,3.216831946E0
8.116881833E0,1.087409618E0,-3.181510967E0,1.181663811E-1,3.364288187E0
8.126873833E0,1.102866441E0,-3.657273177E0,-1.501038365E-1,3.822890613E0
8.136864833E0,4.735978630E-1,-4.328467460E0,-4.396977532E-1,4.376443717E0
8.146856833E0,-2.493124115E-1,-5.358086708E0,-6.883973765E-1,5.407877661E0
8.156847833E0,-5.993799502E-1,-6.376427261E0,-9.485294759E-1,6.474394883E0
8.166839833E0,-6.298807812E-1,-7.577431322E0,-1.388074032E0,7.729227954E0
8.176830833E0,-3.423027286E-1,-8.874222717E0,-1.912421926E0,9.084401885E0
8.186822833E0,3.251899749E-2,-1.033745861E1,-2.589910737E0,1.065700454E1
8.196813833E0,3.866089819E-1,-1.193971615E1,-3.318915857E0,1.239844711E1
8.206805833E0,8.683115244E-1,-1.352392919E1,-3.388836862E0,1.396906729E1
8.216796833E0,1.611375397E0,-1.531075994E1,-3.147164422E0,1.571370563E1
8.226788833E0,2.594941097E0,-1.731946913E1,-2.679740342E0,1.771662323E1
8.236779833E0,3.760347602E0,-1.839902302E1,-1.116296545E0,1.881250595E1
8.246771833E0,6.240566036E0,-1.910361601E1,7.968070936E-1,2.011287425E1
8.256763833E0,8.854695940E0,-1.731731502E1,3.503471525E0,1.976282754E1
8.266754833E0,9.563500684E0,-1.175463190E1,4.484921994E0,1.580336805E1
8.276746583E0,8.860419195E0,-5.719935801E0,3.231367836E0,1.103025077E1
8.286737583E0,7.727375566E0,4.764650452E-1,8.135653599E-1,7.784679870E0
8.296729583E0,8.142957648E0,7.655572343E0,-7.215814948E0,1.330351580E1
8.306720583E0,9.915123582E0,7.479115069E0,-6.879143965E0,1.419751596E1
8.316712583E0,1.084099861E1,5.871992644E0,1.104564618E0,1.237851410E1
8.326703583E0,1.201335716E1,6.264570025E0,3.280120751E0,1.394004232E1
8.336695583E0,1.250931097E1,6.663361827E0,4.298960948E0,1.481095261E1
8.346686583E0,1.111231058E1,6.161782991E0,4.767643057E0,1.357134615E1
8.356678583E0,4.408472573E0,4.975075371E0,3.925496653E0,7.719814075E0
8.366669583E0,-3.031039889E0,4.514691923E0,1.471042514E0,5.633259451E0
8.376661583E0,-8.036982712E0,5.322718654E0,-3.626354270E0,1.029926552E1
8.386653583E0,-9.871152520E0,5.800317475E0,-5.487782629E0,1.269642048E1
8.396644583E0,-1.079100959E1,5.566685541E0,-5.432877274E0,1.330225663E1
8.406636583E0,-1.326075303E1,4.869765263E0,-5.292835289E0,1.508563191E1
8.416627583E0,-1.509528069E1,4.649287226E0,-2.828471289E0,1.604629616E1
8.426619583E0,-1.553456913E1,4.395293534E0,2.334794379E0,1.631234834E1
8.436610583E0,-1.684657206E1,4.171060415E0,3.469597435E0,1.769866779E1
8.446602583E0,-1.644007831E1,5.063979362E0,3.691924946E0,1.759404364E1
8.456593583E0,-1.489346755E1,6.174056881E0,3.877032591E0,1.658209081E1
8.466585583E0,-1.306570629E1,8.289709312E0,3.699574274E0,1.590970808E1
8.476576583E0,-1.249111210E1,9.494825721E0,6.025001414E0,1.680714845E1
8.486568583E0,-1.223819663E1,1.122486714E1,7.625496604E0,1.827345883E1
8.496559583E0,-1.187726438E1,1.396556939E1,8.963655295E0,2.040719613E1
8.506551583E0,-1.183919199E1,1.718660636E1,1.128574368E1,2.372580695E1
8.516543583E0,-1.198514785E1,1.968959590E1,1.353765845E1,2.673185650E1
8.526534583E0,-1.134503210E1,1.952344727E1,1.384411102E1,2.648649008E1
8.536526583E0,-9.456620598E0,1.886375621E1,1.293861004E1,2.475230497E1
8.546517583E0,-7.901438990E0,1.872055556E1,1.158922118E1,2.339234888E1
8.556509583E0,-7.295671542E0,1.762636610E1,1.034553128E1,2.170128158E1
8.566500583E0,-7.351361008E0,1.564259995E1,9.168713640E0,1.956524346E1
8.576492583E0,-7.484020883E0,1.363050288E1,8.015894728E0,1.749444899E1
8.586483583E0,-7.568887371E0,1.202989776E1,6.794098552E0,1.575329398E1
8.596475583E0,-7.417973658E0,1.083262890E1,5.555667633E0,1.425614341E1
8.606466583E0,-7.057479950E0,1.017733612E1,4.358542029E0,1.312947380E1
8.616458583E0,-6.725330619E0,9.743986105E0,3.303907224E0,1.229191361E1
8.626450583E0,-6.323005929E0,9.386052892E0,2.153721606E0,1.152028253E1
8.636441583E0,-5.626300828E0,9.558173870E0,-6.349257588E-1,1.110932399E1
8.646433583E0,-4.248369961E0,9.799372101E0,-3.053558686E0,1.110858054E1
8.656424583E0,-3.301046474E0,9.269985661E0,-3.447553432E0,1.042665654E1
8.666416583E0,-3.110739485E0,8.297491956E0,-3.405585626E0,9.493317985E0
8.676407583E0,-3.731159471E0,6.852845528E0,-1.717559664E0,7.989559064E0
8.686399583E0,-4.551176502E0,6.166391766E0,5.195660412E-2,7.664221712E0
8.696390583E0,-4.670320246E0,6.240229236E0,1.112708182E0,7.873402797E0
8.706382583E0,-4.677602076E0,6.200673991E0,1.800665263E0,7.973124514E0
8.716373583E0,-4.819590013E0,6.141259264E0,2.593190441E0,8.226065275E0
8.726365583E0,-4.814001537E0,6.084146000E0,3.862237674E0,8.666505824E0
8.736356583E0,-4.524988285E0,5.938178447E0,4.628982477E0,8.784358886E0
8.746348583E0,-4.406475164E0,5.194483368E0,4.029999553E0,7.914580041E0
8.756340583E0,-3.372372857E0,1.487977805E0,-5.032868081E0,6.238328122E0
8.766331583E0,-1.638659382E0,-3.811827950E0,-1.590562058E1,1.643788316E1
8.776323583E0,-8.707666533E0,-1.230021337E1,-1.588119442E1,2.189363016E1
8.786314583E0,-2.900693173E0,-2.131441083E1,-2.438596725E1,3.251758799E1
8.796306583E0,9.697899520E-3,-1.354802556E1,-1.071306679E0,1.359031967E1
8.806297583E0,-3.127039183E0,-1.443774491E1,1.369531693E1,2.014419415E1
8.816289583E0,-3.748301168E0,-2.433072275E1,1.662363410E1,2.970486563E1
8.826280583E0,3.963359714E-1,-3.368241799E1,1.733278792E1,3.788255404E1
8.836272583E0,1.357167638E1,-4.037318572E1,1.227162049E1,4.432580731E1
8.846263583E0,2.532944590E1,-3.680235193E1,-1.856357653E0,4.471509813E1
8.856255583E0,2.216700504E1,-2.525509738E1,-9.185227346E0,3.483625206E1
8.866246583E0,1.402861874E1,-1.509295466E1,-1.203450537E0,2.064092337E1
8.876238583E0,1.128666987E1,-6.667714494E-1,-4.156040672E0,1.204600245E1
8.886230583E0,5.817538694E0,7.938689262E0,-1.286026904E1,1.619422933E1
8.896221583E0,-1.208227712E-1,3.742478803E0,-6.202483120E0,7.245104733E0
8.906213583E0,-1.507889913E0,-2.629444932E0,-3.718618655E-1,3.053849028E0
8.916204583E0,-4.777029008E-1,-5.406025690E0,3.393759925E0,6.400853088E0
8.926196583E0,7.828959829E-1,-4.278633395E0,6.963319312E0,8.210203755E0
8.936187583E0,1.219395894E0,-2.095841480E0,9.893024615E0,1.018584380E1
8.946179583E0,-1.268822408E0,2.368800616E-1,1.050398848E1,1.058299563E1
8.956170583E0,-2.235248457E0,3.513031138E0,4.852159882E0,6.393839140E0
8.966162583E0,1.716762981E0,5.230891641E0,-3.163415881E0,6.349543490E0
8.976153583E0,6.950589924E0,2.888421037E0,-7.129968467E0,1.036774453E1
8.986145583E0,1.115510518E1,-1.195886579E0,-6.183765013E0,1.281036557E1
8.996137583E0,1.213835660E1,-5.167430640E0,-1.160253354E0,1.324342207E1
9.006128583E0,1.126446332E1,-7.758855221E0,3.902366530E0,1.422379811E1
9.016120583E0,1.271143986E1,-8.538492551E0,3.894650252E0,1.580047021E1
9.026111583E0,1.276584119E1,-7.905679391E0,4.479192308E-1,1.502222019E1
9.036103583E0,9.360429223E0,-6.094594975E0,-2.704333731E0,1.149239505E1
9.046094583E0,6.866894048E0,-4.244965712E0,-3.653168432E0,8.861129012E0
9.056086583E0,4.786520208E0,-3.684045823E0,-2.269621899E0,6.452453246E0
9.066077583E0,2.785521736E0,-3.969577058E0,-4.066472438E-1,4.866419150E0
9.076069583E0,1.790029178E0,-4.155007469E0,2.166671142E-1,4.529374809E0
9.086060583E0,1.554920822E0,-4.114745881E0,-5.237893389E-1,4.429815764E0
9.096052583E0,1.803387142E0,-4.157804192E0,-1.487105108E0,4.769803192E0
9.106043583E0,1.994647812E0,-4.346001506E0,-2.130424837E0,5.234984142E0
9.116035583E0,2.144704907E0,-4.569798422E0,-2.250602514E0,5.527027088E0
9.126027583E0,2.264539499E0,-4.556527582E0,-2.041045322E0,5.482330595E0
9.136018583E0,2.049235078E0,-4.187265388E0,-1.883726277E0,5.028019543E0
9.146010583E0,1.555226047E0,-3.421026953E0,-1.671568243E0,4.112942239E0
9.156001583E0,1.167901804E0,-2.366786250E0,-1.374605556E0,2.975770860E0
9.165993583E0,1.126653791E0,-1.321700533E0,-4.256373923E-1,1.788129820E0
9.175984583E0,1.217202018E0,-1.853134668E-1,-3.703510912E-1,1.285722274E0
9.185976583E0,7.153957254E-1,6.956783295E-1,-7.370543969E-1,1.240567840E0
9.195967583E0,3.714385271E-2,1.092724153E0,-4.746784285E-2,1.094385186E0
9.205959583E0,-4.858369625E-1,1.334517045E0,7.266312964E-1,1.595295063E0
9.215950583E0,-1.342350560E0,1.362988307E0,7.428628747E-1,2.052190879E0
9.225942583E0,-1.957501328E0,1.006577125E0,1.090772352E0,2.456581625E0
9.235934583E0,-2.066233226E0,1.867337555E-1,1.380631696E0,2.492053996E0
9.245925583E0,-1.853325579E0,-8.667848164E-1,1.558342613E0,2.571879336E0
9.255917583E0,-1.449186206E0,-2.169206495E0,1.640595249E0,3.081744676E0
9.265908583E0,-1.026040751E0,-4.137044823E0,1.205015252E0,4.429442543E0
9.275899750E0,-4.069971997E-1,-7.111761991E0,-1.168283920E-1,7.124356407E0
9.285890750E0,1.184049475E0,-1.082219981E1,-1.217914136E0,1.095469291E1
9.295882750E0,2.990907524E0,-1.501070305E1,-1.492045712E0,1.537832677E1
9.305873750E0,3.836762525E0,-1.896129946E1,-2.072333919E0,1.945626356E1
9.315865750E0,4.260919840E0,-2.211456955E1,-2.247163182E0,2.263314752E1
9.325856750E0,4.153019708E0,-2.500332797E1,-3.615180241E0,2.560241220E1
9.335848750E0,3.971633524E0,-2.496381950E1,-5.350570697E0,2.583785525E1
9.345840750E0,6.867276456E0,-1.997136153E1,-1.421821822E0,2.116686903E1
9.355831750E0,1.010553582E1,-1.225249074E1,4.060283160E0,1.639302543E1
9.365823750E0,1.065622425E1,-5.864638016E0,5.222168180E0,1.323707426E1
9.375814750E0,9.768476583E0,-1.088403645E0,4.210640510E0,1.069285980E1
9.385806750E0,8.750300921E0,4.523519465E0,2.401817504E0,1.013897045E1
9.395797750E0,9.590212519E0,9.996016302E0,-6.612909712E0,1.535001931E1
9.405789750E0,1.097435138E1,9.767739834E0,-1.153397318E1,1.867826724E1
9.415780750E0,8.845319345E0,7.068845767E0,-1.916832773E-1,1.132453078E1
9.425772750E0,8.793804206E0,7.853183674E0,2.694753653E0,1.209401437E1
9.435763750E0,8.818184756E0,1.003436702E1,2.087795126E-1,1.336010826E1
9.445755750E0,7.179894333E0,1.157812785E1,-2.027372193E0,1.377367653E1
9.455747750E0,3.946070666E0,1.129226917E1,-2.128109193E0,1.214971874E1
9.465738750E0,-1.550033720E0,8.719812369E0,-1.389575597E0,8.964856531E0
9.475730750E0,-4.601611369E0,6.795588423E0,1.184290380E0,8.292007773E0
9.485721750E0,-5.265406001E0,6.257625872E0,2.268279963E0,8.486900252E0
9.495713750E0,-6.840830669E0,5.920455537E0,8.946029449E-1,9.091153526E0
9.505704750E0,-9.931429127E0,4.986957498E0,-1.358987643E0,1.119597593E1
9.515696750E0,-1.247872302E1,3.691102243E0,-9.955656481E-1,1.305120358E1
9.525687750E0,-1.459748851E1,2.940289348E0,2.607530737E-1,1.489295016E1
9.535679750E0,-1.636735298E1,2.766003145E0,-7.388600171E-2,1.659959265E1
9.545671750E0,-1.680030655E1,3.691915591E0,-1.396578223E0,1.725778003E1
9.555662750E0,-1.523299080E1,5.452429193E0,-9.958966005E-1,1.621002168E1
9.565654750E0,-1.347441263E1,6.759444444E0,1.257325612E0,1.512715282E1
9.575645750E0,-1.274787737E1,7.772525427E0,3.226846769E0,1.527524367E1
9.585637750E0,-1.251635102E1,8.939603359E0,4.998782322E0,1.617292107E1
9.595628750E0,-1.269829298E1,1.062379092E1,5.954556499E0,1.759455374E1
9.605620750E0,-1.293499997E1,1.490752308E1,3.454487060E0,2.003701449E1
9.615611750E0,-1.408750956E1,1.656575602E1,2.540531001E0,2.189375472E1
9.625603750E0,-1.336753956E1,1.427934501E1,6.245741991E0,2.053290288E1
9.635594750E0,-1.246141526E1,1.342726536E1,6.951065887E0,1.959325502E1
9.645586750E0,-1.159358321E1,1.345104481E1,6.336850966E0,1.885464023E1
9.655577750E0,-1.042587319E1,1.418311388E1,5.696549862E0,1.850162780E1
9.665569750E0,-9.362561703E0,1.543226274E1,5.308713988E0,1.881474792E1
9.675561750E0,-9.179894101E0,1.528311664E1,5.455118912E0,1.864409913E1
9.685552750E0,-9.027192310E0,1.440687045E1,5.383296393E0,1.783333948E1
9.695544750E0,-8.445876163E0,1.342397688E1,4.972425413E0,1.662110087E1
9.705535750E0,-7.851826535E0,1.259379388E1,4.276351520E0,1.544480517E1
9.715527750E0,-7.330718583E0,1.190435336E1,3.631213599E0,1.444433370E1
9.725518750E0,-6.835285170E0,1.128877838E1,3.109784342E0,1.355833321E1
9.735510750E0,-6.333394092E0,1.080485813E1,2.757142274E0,1.282414417E1
9.745501750E0,-5.753644415E0,1.041132415E1,2.523065368E0,1.216001453E1
9.755493750E0,-5.193074774E0,1.018045386E1,2.254168292E0,1.164864546E1
9.765484750E0,-4.638014379E0,9.900316093E0,2.078233906E0,1.112863389E1
9.775476750E0,-4.028146278E0,9.497316635E0,1.719542162E0,1.045857595E1
9.785468750E0,-3.268792355E0,9.046429065E0,9.917941940E-1,9.669877869E0
9.795459750E0,-2.637100106E0,8.526473599E0,-8.284218192E-2,8.925352197E0
9.805451750E0,-2.230285632E0,7.858247947E0,-1.653811419E0,8.334346226E0
9.815442750E0,-1.978248126E0,7.213774855E0,-3.148325679E0,8.115661888E0
9.825434750E0,-1.738954334E0,6.763715250E0,-4.197886856E0,8.148255041E0
9.835425750E0,-1.310736419E0,5.891218289E0,-5.575285041E0,8.216342628E0
9.845417750E0,-1.467913376E0,6.161551441E0,-9.988874513E-1,6.412274322E0
9.855408750E0,-1.058956190E0,2.399618366E0,-4.208809454E0,4.959196864E0
9.865400750E0,1.227663272E0,-1.085581662E1,-1.147245112E1,1.584212884E1
9.875391750E0,2.888568386E-1,-1.309471549E1,-2.032011373E0,1.325458722E1
9.885383750E0,-4.631423982E0,-1.227793080E1,1.235138002E1,1.802093952E1
9.895375750E0,-8.544283633E0,-2.962646645E1,1.775511360E1,3.558056149E1
9.905366750E0,-1.366963537E0,-5.166932340E1,2.007497419E1,5.544900503E1
9.915358750E0,2.609906811E1,-6.882851100E1,1.804414848E1,7.578995037E1
9.925349750E0,5.216736584E1,-6.528919604E1,-7.839340391E0,8.393788439E1
9.935341750E0,2.203700506E1,-3.590217776E1,-2.399595094E1,4.848094081E1
9.945332750E0,-2.446559814E0,-1.644197280E1,-5.241742904E0,1.742985924E1
9.955324750E0,-8.851351333E-1,-2.547862825E0,1.528343473E0,3.100145634E0
9.965315750E0,-1.354074227E0,8.433397620E0,3.617831368E0,9.276012950E0
9.975307750E0,-1.802031757E0,6.359679081E0,4.191566015E0,7.827008504E0
9.985298750E0,2.571192631E0,5.844172177E0,4.924625595E0,8.063331645E0
9.995290750E0,1.219876769E1,5.674778924E0,4.509999533E0,1.418989587E1
1.000528275E1,1.608303796E1,3.999139411E0,3.809576772E0,1.700500224E1
1.001527375E1,9.749100080E0,1.366749821E0,5.419877744E0,1.123779481E1
1.002526575E1,1.826885347E0,-2.841236930E0,7.714008247E0,8.421167413E0
1.003525675E1,-1.655623325E0,-5.662737753E0,7.650640801E0,9.661262450E0
1.004524875E1,-2.478358727E0,-5.676123199E0,4.909012359E0,7.903103118E0
1.005523975E1,-2.782211627E0,-2.625139627E0,5.597189077E-1,3.865920958E0
1.006523175E1,-3.894636219E0,9.019634199E-1,-2.649320787E0,4.795897196E0
1.007522275E1,-3.994851063E0,3.420434631E0,-5.241304362E0,7.424922861E0
1.008521475E1,-7.457655787E-2,3.208199413E0,-6.747111497E0,7.471386665E0
1.009520575E1,6.353466414E0,-5.839696133E-1,-5.488063295E0,8.415841890E0
1.010519775E1,1.100829446E1,-5.761018338E0,-2.948995267E0,1.276982585E1
1.011518975E1,1.260554445E1,-1.020918240E1,1.398630595E-1,1.622179761E1
1.012518075E1,1.025365398E1,-1.291048142E1,3.434729319E0,1.684088228E1
1.013517275E1,6.991371329E0,-1.171315877E1,4.973453354E0,1.451938703E1
1.014516375E1,5.080657960E0,-6.704518624E0,3.629187831E0,9.161586085E0
1.015515575E1,3.017217071E0,-2.695331942E0,1.728408880E0,4.399523882E0
1.016514675E1,5.251711822E-1,-9.641982597E-1,4.294674647E-1,1.178950956E0
1.017513875E1,-1.238158439E0,-3.157794660E-1,-3.198859656E-1,1.317224363E0
1.018512975E1,-2.168988978E0,-4.425336528E-1,-4.631357324E-1,2.261602071E0
1.019512175E1,-2.423141715E0,-1.051742772E0,-2.388809606E-1,2.652327797E0
1.020511275E1,-2.109702305E0,-1.949862818E0,-2.650683188E-1,2.884973143E0
1.021510475E1,-1.215249633E0,-2.821831775E0,-5.461264336E-1,3.120548080E0
1.022509575E1,6.674655139E-2,-3.401216587E0,-9.901289070E-1,3.543033252E0
1.023508775E1,1.221597371E0,-4.101234720E0,-1.399435757E0,4.502315715E0
1.024507975E1,1.938496707E0,-5.111930038E0,-1.625414270E0,5.703645304E0
1.025507075E1,2.526455584E0,-6.425952592E0,-2.021193586E0,7.194516526E0
1.026506275E1,3.057679511E0,-7.799605637E0,-2.157505631E0,8.650900683E0
1.027505375E1,3.613918412E0,-9.176485759E0,-1.927453948E0,1.004904851E1
1.028504633E1,4.282714167E0,-1.073538503E1,-1.760834030E0,1.169147847E1
1.029503733E1,4.712867803E0,-1.240335241E1,-2.059582311E0,1.342744031E1
1.030502933E1,5.237164534E0,-1.444427392E1,-2.465738096E0,1.556100272E1
1.031502033E1,6.145358162E0,-1.592158698E1,-1.296099669E0,1.711555530E1
1.032501233E1,7.906619623E0,-1.660573928E1,1.471131245E0,1.845073001E1
1.033500433E1,9.021338078E0,-1.571553110E1,4.023891259E0,1.856217012E1
1.034499533E1,9.053824039E0,-1.347974061E1,5.003844842E0,1.699157438E1
1.035498733E1,8.836533319E0,-9.663554730E0,5.359322809E0,1.414888519E1
1.036497833E1,8.051708924E0,-5.116001455E0,5.287136593E0,1.090675483E1
1.037497033E1,6.491427374E0,-9.133906335E-1,4.486428237E0,7.943610648E0
1.038496133E1,4.534873003E0,2.791469523E0,3.062281562E0,6.142877471E0
1.039495333E1,2.619069632E0,6.891145375E0,1.868546467E-1,7.374437265E0
1.040494433E1,1.877162924E0,1.075437678E1,-6.825995114E0,1.287534737E1
1.041493633E1,3.393943820E0,1.015678199E1,-7.350259978E0,1.298866416E1
1.042492733E1,3.425067964E0,8.312730970E0,-6.148932711E-1,9.011696870E0
1.043491933E1,2.626942031E0,9.204844170E0,9.662990912E-1,9.621003823E0
1.044491033E1,2.388145983E0,9.933446417E0,5.645673823E-1,1.023207385E1
1.045490233E1,1.738114966E0,1.022986166E1,6.988919592E-1,1.039997900E1
1.046489433E1,1.088278880E0,1.039593779E1,3.787978327E-1,1.045960617E1
1.047488533E1,4.275571428E-1,1.045395269E1,2.373396528E-1,1.046538399E1
1.048487733E1,2.646491831E-2,1.045509290E1,3.463364303E-1,1.046086119E1
1.049486833E1,-2.354692199E-1,1.045265344E1,4.159475327E-1,1.046357597E1
1.050486033E1,-5.105695152E-1,1.065234638E1,4.958730503E-1,1.067609735E1
1.051485133E1,-9.051361191E-1,1.101756230E1,-6.263818073E-1,1.107241187E1
1.052484333E1,-2.795563159E0,1.273838149E1,-7.953562825E0,1.527549338E1
1.053483433E1,-1.618748444E0,1.176388687E1,-1.920840747E0,1.202909016E1
1.054482633E1,-1.505113655E0,1.089472633E1,8.892973275E-1,1.103409619E1
1.055481833E1,-1.960908208E0,1.060407761E1,1.244910950E0,1.085547909E1
1.056480933E1,-2.512934190E0,1.020381582E1,1.598314325E0,1.062954864E1
1.057480133E1,-3.247112341E0,9.639768257E0,1.875727140E0,1.034346281E1
1.058479233E1,-3.963264989E0,8.979584280E0,2.071559747E0,1.003153842E1
1.059478433E1,-4.705414065E0,8.309851801E0,2.197263043E0,9.799108294E0
1.060477533E1,-5.551492721E0,7.720968772E0,2.381513779E0,9.803266705E0
1.061476733E1,-6.522287809E0,7.246302330E0,2.603395586E0,1.009092683E1
1.062475833E1,-7.582078689E0,6.879901764E0,2.984368583E0,1.066430595E1
1.063475033E1,-8.530374277E0,6.549827610E0,3.482308112E0,1.130460069E1
1.064474133E1,-9.191344119E0,6.219544126E0,3.703213581E0,1.169945839E1
1.065473333E1,-9.680477741E0,5.959945292E0,3.956880999E0,1.203700563E1
1.066472433E1,-9.695706230E0,6.041412209E0,3.821257170E0,1.204605276E1
1.067471633E1,-9.296996289E0,6.381086907E0,3.501466222E0,1.180731450E1
1.068470833E1,-8.763477037E0,6.819338059E0,3.370832115E0,1.160449958E1
1.069469933E1,-8.272674619E0,7.165179815E0,3.375602274E0,1.145301872E1
1.070469133E1,-7.939035417E0,7.469623284E0,3.429365375E0,1.142734012E1
1.071468233E1,-7.620783164E0,7.734337261E0,3.410257552E0,1.138095626E1
1.072467433E1,-7.295798426E0,7.930837621E0,3.372403847E0,1.129158836E1
1.073466533E1,-6.978139665E0,8.051351659E0,3.200658844E0,1.112487815E1
1.074465733E1,-6.730049322E0,8.132538494E0,3.060924716E0,1.099095111E1
1.075464833E1,-6.554014217E0,8.204434104E0,3.065355736E0,1.093911546E1
1.076464033E1,-6.344400891E0,8.320817669E0,3.030499021E0,1.089363822E1
1.077463233E1,-6.171409262E0,8.481883902E0,2.966731042E0,1.090092381E1
1.078462333E1,-6.026683658E0,8.646296496E0,2.842488526E0,1.091600202E1
1.079461533E1,-5.865803951E0,8.752301254E0,2.665569322E0,1.086810439E1
1.080460633E1,-5.821390255E0,8.828603325E0,2.447792114E0,1.085469978E1
1.081459833E1,-5.876712517E0,8.777901533E0,2.190146251E0,1.078814377E1
1.082458933E1,-6.410149323E0,8.487828766E0,-2.227917802E-1,1.063874465E1
1.083458133E1,-1.003914887E1,5.234383013E0,-1.974720033E1,2.276258326E1
1.084457233E1,-7.964286618E0,1.531966993E0,-1.693366049E1,1.877566621E1
1.085456433E1,-4.253666369E0,1.754936528E0,2.948740329E0,5.465212651E0
1.086455533E1,-4.714552093E0,-1.874241362E0,1.281958762E0,5.232895985E0
1.087454733E1,-4.968307804E0,2.111884485E0,-6.780825958E-1,5.440949781E0
1.088453933E1,-4.987276171E0,2.523779898E0,4.414003162E-1,5.606890655E0
1.089453033E1,-2.084755159E0,-8.201252049E-1,3.540827485E-1,2.268079368E0
1.090452233E1,3.565374827E-1,-5.820859328E0,2.280393054E0,6.261766107E0
1.091451333E1,5.469080894E0,-1.384863209E1,7.357768972E0,1.660819740E1
1.092450533E1,1.403660838E1,-2.046785095E1,1.064253124E1,2.700412503E1
1.093449633E1,2.247251504E1,-2.891637122E1,1.216903811E1,3.859087904E1
1.094448833E1,3.309108205E1,-3.908895473E1,1.282147160E1,5.279541862E1
1.095447933E1,4.266085037E1,-3.818602535E1,9.559136907E0,5.804737534E1
1.096447133E1,3.435254866E1,-2.110996878E1,5.419999366E0,4.068297893E1
1.097446233E1,1.753831989E1,-7.462805430E0,3.328078444E0,1.934844272E1
1.098445433E1,1.194679947E1,-2.720153373E0,-3.073934624E-1,1.225641639E1
1.099444633E1,9.856286559E0,1.601802043E0,-6.182975054E0,1.174484291E1
1.100443733E1,8.970955544E0,5.025510530E0,-1.067500200E1,1.482192522E1
1.101442933E1,1.118622991E1,5.893536710E0,-8.778361709E0,1.539237308E1
1.102442033E1,1.231132542E1,2.517618687E0,-2.733583258E0,1.286000058E1
1.103441233E1,8.229526845E0,-1.317759510E0,-1.301834618E0,8.435423854E0
1.104440333E1,1.302784206E0,-4.171867915E0,2.474489039E-1,4.377551776E0
1.105439533E1,-1.808566021E0,-5.298072056E0,3.195838984E0,6.446228771E0
1.106438633E1,-2.621628374E0,-4.911983914E0,5.442328713E0,7.785850186E0
1.107437833E1,-2.135730016E0,-3.496073627E0,6.171409847E0,7.407440381E0
1.108436933E1,-7.093380100E-1,-1.766579504E0,5.547034804E0,5.864602175E0
1.109436133E1,5.110577577E-1,-8.500126630E-1,4.108926147E0,4.226934544E0
1.110435333E1,1.997357411E0,-1.271900382E0,2.329049490E0,3.321391085E0
1.111434433E1,4.701215179E0,-3.036887689E0,8.845907575E-1,5.666269655E0
1.112433633E1,7.212972617E0,-5.554201736E0,2.588895478E-1,9.107313253E0
1.113432733E1,8.978291461E0,-8.148529460E0,2.273116779E-1,1.212682648E1
1.114431933E1,9.823199505E0,-9.979038327E0,8.552483330E-1,1.402882405E1
1.115431033E1,9.057428847E0,-1.011985565E1,5.065980864E-1,1.359062682E1
1.116430233E1,7.271696203E0,-9.150900682E0,-1.655199401E0,1.180492414E1
1.117429333E1,5.458312077E0,-8.116141148E0,-3.846615375E0,1.051006031E1
1.118428533E1,4.375082633E0,-7.358136177E0,-3.817383390E0,9.373149524E0
1.119427633E1,3.658492321E0,-7.141155944E0,-2.598814877E0,8.434127878E0
1.120426833E1,3.233030199E0,-7.388719454E0,-1.960426397E0,8.299935608E0
1.121426033E1,2.934015285E0,-8.068426114E0,-1.386026922E0,8.696494482E0
1.122425133E1,2.702815209E0,-8.575390821E0,-2.853604960E-1,8.995775030E0
1.123424333E1,2.185237513E0,-8.605578241E0,2.623236358E-1,8.882570210E0
1.124423433E1,1.831498801E0,-8.516509944E0,-3.506259843E-1,8.718272080E0
1.125422633E1,1.790488769E0,-8.015068517E0,-9.474092225E-1,8.267088822E0
1.126421733E1,1.459410940E0,-6.560850781E0,-7.438827753E-1,6.762248505E0
1.127420933E1,1.240934405E0,-4.162730471E0,3.500236114E-1,4.357838880E0
1.128420012E1,1.607593126E0,-1.273080350E0,1.958864021E0,2.835883899E0
1.129419213E1,2.138233209E0,1.260938607E0,2.937906607E0,3.846206268E0
1.130418413E1,2.170601056E0,3.344278740E0,3.153196410E0,5.083144384E0
1.131417513E1,2.105510143E0,5.174419232E0,3.248585547E0,6.462282523E0
1.132416713E1,2.280714798E0,6.814094276E0,3.386893247E0,7.943839541E0
1.133415813E1,2.605866619E0,8.227688481E0,3.545679359E0,9.330446971E0
1.134415012E1,2.961037608E0,9.406259115E0,3.727692364E0,1.054235005E1
1.135414112E1,3.244423791E0,1.032777095E1,3.958373208E0,1.152639826E1
1.136413312E1,3.194129843E0,1.108343937E1,3.505861866E0,1.205554483E1
1.137412412E1,2.028834143E0,1.306253943E1,3.278548434E-1,1.322322174E1
1.138411613E1,1.297752969E0,1.297547089E1,7.004028797E-2,1.304039543E1
1.139410713E1,8.444990310E-1,1.195891607E1,1.648573337E0,1.210151421E1
1.140409913E1,3.136319299E-1,1.166135828E1,1.711184152E0,1.179041107E1
1.141409113E1,-1.436767597E-1,1.154768607E1,1.291772875E0,1.162060127E1
1.142408213E1,-6.439203845E-1,1.155622769E1,5.789679050E-1,1.158862527E1
1.143407412E1,-1.356696996E0,1.159188284E1,-7.094051798E-1,1.169254592E1
1.144406512E1,-2.174755649E0,1.162111073E1,-2.046134884E0,1.199860178E1
1.145405712E1,-2.698733268E0,1.148897535E1,-2.358274459E0,1.203499789E1
1.146404812E1,-2.614107685E0,1.127649338E1,-1.564498562E0,1.168077556E1
1.147404013E1,-2.525760934E0,1.106013821E1,-5.918704442E-1,1.136030089E1
1.148403113E1,-2.497085604E0,1.111440505E1,-2.341166675E-1,1.139386883E1
1.149402313E1,-2.405288558E0,1.136168965E1,-1.778266188E-1,1.161486234E1
1.150401513E1,-2.744828623E0,1.141280133E1,-6.386093585E-1,1.175559188E1
1.151400613E1,-2.932356138E0,1.085373150E1,-1.317213234E-1,1.124364490E1
1.152399812E1,-3.035151066E0,1.028960266E1,5.961598885E-1,1.074446237E1
1.153398912E1,-3.303669827E0,9.913944783E0,7.353084183E-1,1.047574408E1
1.154398112E1,-3.581375733E0,9.649437212E0,8.379773390E-1,1.032666920E1
1.155397212E1,-3.850394138E0,9.447665588E0,8.944472627E-1,1.024128683E1
1.156396413E1,-4.125794195E0,9.252586101E0,9.415304319E-1,1.017442907E1
1.157395513E1,-4.343262085E0,9.099813559E0,9.897042529E-1,1.013163594E1
1.158394713E1,-4.567362472E0,8.999504575E0,1.102277407E0,1.015218686E1
1.159393913E1,-4.756921602E0,8.871813664E0,1.249252800E0,1.014386580E1
1.160393013E1,-4.873579694E0,8.729166745E0,1.428161227E0,1.009899874E1
1.161392212E1,-4.895631299E0,8.569431338E0,1.638616844E0,1.000437027E1
1.162391312E1,-4.911571686E0,8.351862876E0,1.751246935E0,9.846015222E0
1.163390512E1,-4.985648891E0,8.110545362E0,1.877136319E0,9.703673619E0
1.164389612E1,-5.125946984E0,7.855158863E0,2.136485914E0,9.619949340E0
1.165388813E1,-5.306006727E0,7.603290634E0,2.363442228E0,9.568155256E0
1.166387913E1,-5.435101554E0,7.380514056E0,2.545490609E0,9.512719857E0
1.167387113E1,-5.501913010E0,7.184093218E0,2.841424041E0,9.484510147E0
1.168386213E1,-5.495474056E0,6.962856798E0,3.113658415E0,9.400876481E0
1.169385413E1,-5.504101038E0,6.720866854E0,2.906371696E0,9.160358942E0
1.170384612E1,-5.701939825E0,6.360590077E0,2.393067731E0,8.871076432E0
1.171383712E1,-6.148432043E0,5.357686758E0,2.248947898E0,8.459656650E0
1.172382912E1,-4.472816504E0,1.489477031E0,-4.232965472E0,6.335820861E0
1.173382012E1,3.187487406E0,-1.302301226E1,-2.580450410E1,2.907974134E1
1.174381213E1,-1.472547002E0,-1.786391157E1,3.512582949E0,1.826543102E1
1.175380313E1,-2.167212594E0,-2.024960011E1,1.389111796E1,2.465169920E1
1.176379513E1,6.241927267E0,-3.081952999E1,6.982635005E0,3.221121352E1
1.177378613E1,2.000413868E1,-3.720062684E1,5.876373378E0,4.264485860E1
1.178377813E1,2.876479970E1,-3.266807108E1,1.255344576E0,4.354529205E1
1.179377012E1,2.072494834E1,-1.956743353E1,-4.235493223E0,2.881574815E1
1.180376112E1,7.182318004E0,-8.352171024E0,-2.187619962E0,1.123076729E1
1.181375312E1,6.000552451E0,1.863456758E0,-9.521676866E-1,6.354976326E0
1.182374412E1,7.705425119E0,7.619800247E0,2.623902941E0,1.114987887E1
1.183373613E1,8.764169347E0,6.117554067E0,3.469423188E0,1.123708278E1
1.184372713E1,9.622584459E0,4.542053677E0,1.679747182E0,1.077246183E1
1.185371913E1,9.619136356E0,3.105283740E0,-1.053891551E0,1.016273874E1
1.186371013E1,6.038627765E0,1.863161181E0,4.411829460E-1,6.334906255E0
1.187370213E1,-1.129968578E-1,-1.481894946E0,3.714479996E0,4.000767747E0
1.188369313E1,-4.555706633E0,-7.194983658E0,1.864302850E-1,8.518040209E0
1.189368512E1,-5.305693901E0,-8.131216439E0,-1.870592115E0,9.887678363E0
1.190367712E1,-2.477692729E0,-3.731338396E0,-1.320392511E0,4.669612817E0
1.191366812E1,1.176120651E0,1.048886115E0,6.593038242E-1,1.708245708E0
1.192366013E1,2.316855707E0,5.010451026E0,3.233339517E0,6.397415438E0
1.193365113E1,2.795148007E0,8.145413479E0,3.499835726E0,9.295669057E0
1.194364313E1,4.891800495E0,8.876868582E0,1.571709494E0,1.025664558E1
1.195363413E1,8.411807361E0,6.610233441E0,3.539941632E-1,1.070415812E1
1.196362613E1,1.117361981E1,1.290961720E0,2.013248828E0,1.142670261E1
1.197361713E1,1.167735627E1,-3.226535697E0,4.149951382E0,1.280598604E1
1.198360912E1,1.123139264E1,-5.437914065E0,3.209482877E0,1.288471460E1
1.199360112E1,1.062343891E1,-4.837845021E0,-6.894322606E-1,1.169348176E1
1.200359212E1,8.505016072E0,-1.308382622E0,-3.198065604E0,9.180130014E0
1.201358413E1,6.128540985E0,1.208485282E0,-2.075845757E0,6.582445358E0
1.202357513E1,4.768064641E0,5.376336452E-1,5.391401803E-1,4.828474137E0
1.203356713E1,4.096114898E0,-5.680608013E-1,1.567636178E0,4.422480471E0
1.204355813E1,3.701185182E0,-7.064401299E-1,1.003743637E0,3.899401325E0
1.205355013E1,3.388043979E0,-9.666380104E-1,-1.123846543E-1,3.525033526E0
1.206354113E1,3.355155146E0,-1.521697235E0,-1.003694447E0,3.818380687E0
1.207353312E1,3.404713807E0,-1.782505565E0,-1.576100607E0,4.153732697E0
1.208352512E1,3.303514291E0,-1.807730454E0,-1.376500053E0,4.009469848E0
1.209351612E1,2.894130843E0,-1.740070567E0,-7.599380600E-1,3.461407917E0
1.210350813E1,2.405509436E0,-1.665314500E0,-2.205511272E-1,2.934005936E0
1.211349913E1,1.944573426E0,-1.602454593E0,-7.582082709E-2,2.520907640E0
1.212349113E1,1.595814494E0,-1.599750840E0,-2.807832500E-2,2.259782079E0
1.213348213E1,1.534129878E0,-1.677752112E0,-1.781751859E-1,2.280384404E0
1.214347413E1,1.287738150E0,-1.973600759E0,-3.752164131E-1,2.386243252E0
1.215346513E1,7.944962740E-1,-2.336570179E0,-4.637315637E-1,2.511141472E0
1.216345712E1,4.064481461E-1,-2.711558551E0,-5.841380131E-1,2.803384934E0
1.217344812E1,2.218123716E-1,-3.277570780E0,-8.209110707E-1,3.386084159E0
1.218344012E1,2.335097265E-1,-4.076874635E0,-1.229760084E0,4.264709069E0
1.219343213E1,4.083414745E-1,-5.137478862E0,-1.903517786E0,5.493979594E0
1.220342312E1,6.750364888E-1,-5.955718340E0,-1.777226114E0,6.251782775E0
1.221341513E1,1.217166935E0,-6.671361403E0,-1.122390586E0,6.873741262E0
1.222340613E1,2.062581933E0,-7.681124675E0,-8.349122286E-1,7.996936847E0
1.223339813E1,2.884536147E0,-9.087763032E0,-1.033471978E0,9.590414487E0
1.224338913E1,3.232519153E0,-1.024981587E1,-8.808456159E-1,1.078349639E1
1.225338112E1,3.546022882E0,-1.114309383E1,-4.604250363E-1,1.170276932E1
1.226337213E1,3.959047392E0,-1.188313967E1,-3.112699471E-2,1.252533566E1
1.227336412E1,4.856265212E0,-1.240121233E1,1.271523675E0,1.337872010E1
1.228335658E1,6.214118494E0,-1.255120393E1,2.410466559E0,1.421120466E1
1.229334758E1,6.904450130E0,-1.137067799E1,3.001382811E0,1.363715690E1
1.230333958E1,5.761434660E0,-6.793395132E0,3.622265897E0,9.615880459E0
1.231333058E1,3.926148618E0,-1.078748723E0,3.760778250E0,5.542724494E0
1.232332258E1,2.624119872E0,2.643022751E0,3.478509761E0,5.096234348E0
1.233331358E1,1.725992372E0,5.139057611E0,3.012480826E0,6.201935466E0
1.234330558E1,8.869024542E-1,7.353306962E0,2.456096038E0,7.803212606E0
1.235329658E1,-6.755682930E-2,9.942916567E0,-6.965320230E-2,9.943390034E0
1.236328858E1,7.438984166E-1,1.191258624E1,-5.515824705E0,1.314866602E1
1.237328058E1,2.738471238E0,1.091371575E1,-3.974965267E0,1.193351436E1
1.238327158E1,3.855482385E0,9.883713509E0,-4.357111216E-2,1.060916753E1
1.239326358E1,3.951990972E0,9.906958530E0,2.015198436E0,1.085481850E1
1.240325458E1,3.056627012E0,1.024465862E1,2.075850288E0,1.089059931E1
1.241324658E1,2.064070049E0,1.056198468E1,1.526377054E0,1.086948630E1
1.242323758E1,1.285455690E0,1.109599685E1,2.507112117E-1,1.117302101E1
1.243322958E1,4.841059674E-1,1.154549103E1,-8.003084064E-1,1.158331624E1
1.244322058E1,1.020890231E-1,1.141646286E1,-6.090845740E-1,1.143315488E1
1.245321258E1,1.303220755E-1,1.122550800E1,-1.395180007E-1,1.122713138E1
1.246320458E1,2.483753770E-1,1.118941197E1,9.539023362E-2,1.119257476E1
1.247319558E1,2.602533743E-1,1.130354728E1,5.825580955E-2,1.130669300E1
1.248318758E1,-3.343456183E-3,1.128402225E1,-2.850037428E-1,1.128762139E1
1.249317858E1,-3.817016331E-1,1.142241649E1,-8.134867879E-1,1.145770725E1
1.250317058E1,-4.496198934E-1,1.157680170E1,-7.312703311E-1,1.160858527E1
1.251316158E1,-5.089711423E-1,1.123363797E1,-2.114529327E-1,1.124715013E1
1.252315358E1,-6.257375173E-1,1.097643415E1,2.121229506E-1,1.099630167E1
1.253314458E1,-7.616466165E-1,1.076304820E1,4.321807189E-1,1.079861530E1
1.254313658E1,-1.012394739E0,1.043566611E1,5.410289041E-1,1.049860860E1
1.255312858E1,-1.340727519E0,1.013892693E1,6.186566122E-1,1.024588335E1
1.256311958E1,-1.647526539E0,9.927427293E0,7.097946775E-1,1.008820920E1
1.257311158E1,-1.909425521E0,9.723534883E0,8.014347263E-1,9.941596153E0
1.258310258E1,-2.112884798E0,9.510919597E0,8.740923011E-1,9.781917558E0
1.259309458E1,-2.296642174E0,9.323138021E0,9.354363906E-1,9.647305793E0
1.260308558E1,-2.447506624E0,9.226309884E0,9.855984843E-1,9.596170440E0
1.261307758E1,-2.571113693E0,9.209095681E0,1.044561807E0,9.618169173E0
1.262306958E1,-2.692954172E0,9.168101436E0,1.105321540E0,9.619138310E0
1.263306058E1,-2.833373302E0,9.074472311E0,1.209950302E0,9.583216147E0
1.264305258E1,-2.959741280E0,9.005477505E0,1.310453414E0,9.569534037E0
1.265304358E1,-3.051913864E0,8.982455848E0,1.417955789E0,9.592147305E0
1.266303558E1,-3.139739920E0,8.967643681E0,1.536410730E0,9.624819889E0
1.267302658E1,-3.258391035E0,8.928684268E0,1.704455177E0,9.656276837E0
1.268301858E1,-3.454618623E0,8.797969177E0,1.926260970E0,9.646197842E0
1.269300958E1,-3.696304803E0,8.614956005E0,2.073387733E0,9.600993327E0
1.270300158E1,-3.828434043E0,8.425817875E0,2.069858062E0,9.483439591E0
1.271299358E1,-3.964554007E0,8.225762993E0,2.266277876E0,9.408341017E0
1.272298458E1,-4.053862625E0,7.917856802E0,1.733960081E0,9.062719023E0
1.273297658E1,-3.900109797E0,6.539231871E0,-3.399416814E0,8.338371817E0
1.274296758E1,-3.947130474E0,5.251541083E0,-4.380848572E0,7.896224220E0
1.275295958E1,-4.102293651E0,5.429006417E0,-9.303211002E-1,6.867926996E0
1.276295058E1,-5.569461799E0,4.399851438E0,-2.790638634E0,7.626615330E0
1.277294258E1,-6.712919319E0,2.356603324E0,-1.911495435E0,7.366863634E0
1.278293358E1,-4.700808797E0,4.222566783E-2,5.750041945E0,7.427137317E0
1.279292558E1,-2.137326890E0,1.775937973E0,6.349813074E0,6.931251546E0
1.280291758E1,3.512727667E0,-2.338803231E0,8.798780186E0,9.758472677E0
1.281290858E1,1.283035586E1,-1.312132968E1,8.883188252E0,2.038868209E1
1.282290058E1,2.247652857E1,-2.817878005E1,-9.830502677E-1,3.605834674E1
1.283289158E1,2.433213778E1,-4.003226965E1,-1.443399217E0,4.686916837E1
1.284288358E1,1.833380435E1,-4.123631427E1,3.702268671E0,4.527989388E1
1.285287458E1,1.101288920E1,-2.372297953E1,2.547871011E0,2.627841573E1
1.286286658E1,8.790061403E0,-1.523742884E0,-4.322495699E-1,8.931618640E0
1.287285758E1,9.498363286E0,5.463234848E0,1.190692497E0,1.102195939E1
1.288284958E1,8.467404442E0,4.176667310E0,-1.230479291E0,9.521321709E0
1.289284158E1,8.355264786E0,2.129346026E0,-1.444324247E0,8.742461705E0
1.290283258E1,5.461610491E0,-2.421636642E0,-3.280412527E0,6.815762579E0
1.291282458E1,-4.796897846E-1,-7.832822499E0,-7.907299362E-2,7.847895459E0
1.292281558E1,1.467726558E0,-1.000034558E1,8.210243897E0,1.302187536E1
1.293280758E1,6.219407301E0,-7.881922154E0,8.853205485E0,1.338599908E1
1.294279858E1,4.708918886E0,-3.804407834E0,1.167634587E0,6.165290469E0
1.295279058E1,1.079334029E0,-1.401713247E0,-3.957965657E0,4.335349365E0
1.296278158E1,3.604820729E0,2.570328997E0,-4.051050991E0,6.001028060E0
1.297277358E1,4.512362977E0,5.416749483E0,-4.358879414E0,8.288692560E0
1.298276558E1,3.641542997E0,7.038439661E0,-3.356757867E0,8.606293723E0
1.299275658E1,4.970052028E0,6.848289378E0,-3.187434653E-2,8.461766987E0
1.300274858E1,7.553418562E0,4.096636762E0,2.388195831E0,8.918522526E0
1.301273958E1,8.257431512E0,-1.855871457E0,4.358433271E0,9.519736059E0
1.302273158E1,7.633171660E0,-5.483456858E0,3.608574641E0,1.006754288E1
1.303272258E1,8.225854794E0,-5.654523000E0,7.253944641E-1,1.000822235E1
1.304271458E1,9.075656372E0,-4.157891023E0,-1.218549802E0,1.005686134E1
1.305270658E1,8.305372834E0,-1.898611680E0,-6.882301462E-1,8.547374155E0
1.306269758E1,6.509236824E0,-2.804830411E-1,1.208985511E0,6.626498376E0
1.307268958E1,4.781659418E0,5.779212534E-2,2.939637383E0,5.613294457E0
1.308268058E1,3.672560722E0,-1.578894407E-1,3.623302608E0,5.161487491E0
1.309267258E1,3.039727097E0,-8.362512410E-2,3.134303471E0,4.367011820E0
1.310266358E1,2.732598002E0,-8.222296178E-2,1.668441006E0,3.202740677E0
1.311265558E1,2.852437856E0,-8.750662279E-1,-6.157527387E-2,2.984281177E0
1.312264658E1,2.837956642E0,-1.847070521E0,-1.363578876E0,3.650344472E0
1.313263858E1,2.604656830E0,-2.591503519E0,-1.735694511E0,4.063589931E0
1.314263058E1,2.561855212E0,-2.942739331E0,-1.328483888E0,4.121612104E0
1.315262158E1,2.394803769E0,-3.102369488E0,-7.501294289E-1,3.990297695E0
1.316261358E1,1.768006809E0,-3.067445823E0,-2.946406120E-1,3.552729239E0
1.317260458E1,9.481839055E-1,-3.210022575E0,4.356292605E-2,3.347416225E0
1.318259658E1,1.449355191E-1,-3.504719321E0,3.155847538E-1,3.521882672E0
1.319258758E1,-2.570266432E-1,-3.789416158E0,3.004731365E-1,3.809989713E0
1.320257958E1,-2.819679415E-1,-4.157474994E0,-1.367717097E-1,4.169269810E0
1.321257158E1,-8.078863978E-2,-4.557302923E0,-5.013222168E-1,4.585505501E0
1.322256258E1,4.082028955E-1,-4.883334312E0,-3.302805609E-1,4.911483366E0
1.323255458E1,1.110984423E0,-5.148821291E0,-1.366091571E-1,5.269089973E0
1.324254558E1,1.851675788E0,-5.608738716E0,-6.210338708E-2,5.906818944E0
1.325253758E1,2.441220721E0,-6.581884385E0,-2.816259160E-1,7.025672482E0
1.326252858E1,2.862331930E0,-7.982034672E0,-9.621102190E-1,8.534136023E0
1.327252058E1,3.174601897E0,-9.711677899E0,-1.558574163E0,1.033556666E1
1.328251171E1,3.712852131E0,-1.184348151E1,-1.747172595E0,1.253419073E1
1.329250371E1,4.545655269E0,-1.399258586E1,-1.865205660E0,1.483018655E1
1.330249571E1,5.100368924E0,-1.566305819E1,-2.780900681E0,1.670564466E1
1.331248671E1,7.880887781E0,-1.640584286E1,-3.277232226E0,1.849325075E1
1.332247871E1,9.382629932E0,-1.345500455E1,-1.752149599E0,1.649669422E1
1.333246971E1,7.484476966E0,-5.525911152E0,9.424309762E-1,9.351003457E0
1.334246171E1,5.534765006E0,4.536813694E-1,2.704145451E0,6.176718634E0
1.335245271E1,4.382072394E0,3.139446682E0,3.225550149E0,6.281946968E0
1.336244471E1,3.392473245E0,5.092872793E0,2.947660933E0,6.792270090E0
1.337243671E1,2.686657013E0,6.969959410E0,2.924958533E0,8.022084674E0
1.338242771E1,2.408764289E0,8.880215528E0,3.100817052E0,9.709554038E0
1.339241971E1,2.167736505E0,1.054926932E1,2.811106812E0,1.113052049E1
1.340241071E1,2.097154911E0,1.149698487E1,2.348955020E0,1.192041566E1
1.341240271E1,1.789861070E0,1.185264059E1,2.305510500E0,1.220672234E1
1.342239371E1,1.399722709E0,1.186693703E1,2.471213429E0,1.220206187E1
1.343238571E1,8.940980378E-1,1.182427224E1,2.331926759E0,1.208514409E1
1.344237671E1,3.199723582E-1,1.189722210E1,1.942098885E0,1.205893959E1
1.345236871E1,-3.345737328E-1,1.206793390E1,1.361197744E0,1.214906694E1
1.346236071E1,-1.144250256E0,1.226943714E1,4.969488649E-1,1.233269453E1
1.347235171E1,-1.761201235E0,1.222042344E1,-1.854539461E-1,1.234807564E1
1.348234371E1,-1.887140028E0,1.205757848E1,-2.534921475E-1,1.220699613E1
1.349233471E1,-1.851981743E0,1.179679968E1,1.815326571E-2,1.194130012E1
1.350232671E1,-1.807889936E0,1.164416396E1,3.435297668E-1,1.178868242E1
1.351231771E1,-1.759202511E0,1.148325209E1,6.550868853E-1,1.163567836E1
1.352230971E1,-1.732322568E0,1.132753489E1,8.530877137E-1,1.149094195E1
1.353230171E1,-1.775686835E0,1.137063121E1,8.820757969E-1,1.154219977E1
1.354229271E1,-1.844904127E0,1.146082568E1,8.591406783E-1,1.164011681E1
1.355228471E1,-1.992307171E0,1.147001751E1,8.536806214E-1,1.167301846E1
1.356227571E1,-2.264449159E0,1.131986101E1,8.851304555E-1,1.157801534E1
1.357226771E1,-2.678027985E0,1.098322745E1,9.536843812E-1,1.134515901E1
1.358225871E1,-3.117480447E0,1.062545971E1,9.994435215E-1,1.111836165E1
1.359225071E1,-3.541099819E0,1.023716600E1,1.043471740E0,1.088245326E1
1.360224271E1,-3.918861525E0,9.949327455E0,1.089092886E0,1.074861460E1
1.361223371E1,-4.252379982E0,9.702505372E0,1.149033717E0,1.065559123E1
1.362222571E1,-4.534336521E0,9.497779734E0,1.213002621E0,1.059430993E1
1.363221671E1,-4.763777170E0,9.334534244E0,1.284538554E0,1.055827362E1
1.364220871E1,-4.941481948E0,9.192424099E0,1.359099909E0,1.052454546E1
1.365219971E1,-5.129745920E0,9.049616967E0,1.428223354E0,1.049998488E1
1.366219171E1,-5.310426053E0,8.899009064E0,1.491723092E0,1.046987225E1
1.367218371E1,-5.475209945E0,8.717017985E0,1.528596658E0,1.040677348E1
1.368217471E1,-5.674491241E0,8.523801422E0,1.433912841E0,1.033978470E1
1.369216671E1,-5.903789803E0,8.272187546E0,1.202863330E0,1.023380188E1
1.370215771E1,-6.248271496E0,7.917561518E0,5.549767792E-1,1.010132052E1
1.371214971E1,-6.518823334E0,7.547068486E0,2.625668800E-1,9.976083488E0
1.372214071E1,-6.510613843E0,7.234511420E0,6.009334092E-1,9.751275253E0
1.373213271E1,-6.472563672E0,6.917785875E0,9.366502726E-1,9.519829601E0
1.374212371E1,-6.597022827E0,6.509408732E0,9.468630195E-1,9.316096918E0
1.375211571E1,-6.847018778E0,5.924393637E0,4.973346350E-1,9.067935148E0
1.376210771E1,-7.081107379E0,5.202360737E0,-2.199403855E-1,8.789483074E0
1.377209871E1,-6.783236765E0,4.494102123E0,3.248625308E-2,8.136971811E0
1.378209071E1,-6.303051136E0,2.932989684E0,-7.724607494E-1,6.994825067E0
1.379208171E1,-4.465805692E0,-6.710273454E0,-9.718408045E0,1.262610966E1
1.380207371E1,-5.819116858E0,-5.060069329E0,1.528169811E-3,7.711447656E0
1.381206471E1,-7.747595238E0,-1.121043388E0,4.003709010E0,8.792704708E0
1.382205671E1,-8.252681234E0,-6.192075661E0,6.427114434E0,1.215550692E1
1.383204871E1,-6.907904665E0,-1.476225486E1,1.079672817E1,1.955025970E1
1.384203971E1,1.662209044E0,-2.480220012E1,9.824295273E0,2.672880183E1
1.385203171E1,1.405511716E1,-3.244934312E1,6.806339114E0,3.601155980E1
1.386202271E1,2.691259825E1,-3.280287513E1,4.026014383E0,4.262071507E1
1.387201471E1,3.684371981E1,-2.387583744E1,2.213037077E0,4.395921787E1
1.388200571E1,3.034889696E1,-1.179153952E1,1.391481936E0,3.258883509E1
1.389199771E1,1.464357041E1,-1.861248264E0,-3.027115238E-1,1.476448556E1
1.390198971E1,5.141580684E0,4.045162261E0,-5.971925068E-1,6.569309594E0
1.391198071E1,4.163263153E0,5.124702696E0,-1.127969488E0,6.698332104E0
1.392197271E1,2.701041164E0,4.021164703E0,-3.916165374E-1,4.859912802E0
1.393196371E1,2.820278755E0,3.849740712E0,8.742498835E-1,4.851678953E0
1.394195571E1,8.544354969E0,4.831595809E0,4.289512140E0,1.071215358E1
1.395194671E1,1.248159985E1,5.100320392E0,6.705897397E0,1.505897283E1
1.396193871E1,1.295577863E1,3.009969740E0,7.796297282E0,1.541733988E1
1.397193071E1,9.243233480E0,-4.381760153E-1,4.643496144E0,1.035332892E1
1.398192171E1,2.173913503E0,-3.608235795E0,4.009640425E-1,4.231552627E0
1.399191371E1,-3.363575721E-1,-2.650146706E0,3.818606043E-1,2.698561006E0
1.400190471E1,-4.910433233E-1,7.225246507E-1,1.792525939E0,1.994069873E0
1.401189671E1,-4.967326641E-1,4.100205902E0,2.931105126E0,5.064564052E0
1.402188771E1,7.261657119E-3,6.210896094E0,3.047125579E0,6.918110820E0
1.403187971E1,2.734006596E0,5.534189640E0,1.491846907E0,6.350405832E0
1.404187171E1,6.826450612E0,2.958980557E-1,3.166752595E-1,6.840194941E0
1.405186271E1,8.681314886E0,-5.555408601E0,1.606329542E-1,1.030793849E1
1.406185471E1,9.037451835E0,-8.459475617E0,6.441655290E-1,1.239569331E1
1.407184571E1,1.037069653E1,-9.114318747E0,8.785242712E-1,1.383452050E1
1.408183771E1,1.153309844E1,-7.757896863E0,4.168871071E-1,1.390579441E1
1.409182871E1,1.008206393E1,-4.638859887E0,-1.735877529E-2,1.109807801E1
1.410182071E1,5.520301334E0,-2.337782307E0,4.852178885E-1,6.014514887E0
1.411181171E1,3.302964068E0,-2.271780106E0,1.780714709E0,4.386513577E0
1.412180371E1,3.170611757E0,-3.057019653E0,2.250661132E0,4.946071532E0
1.413179571E1,2.835599045E0,-3.417485880E0,1.573883343E0,4.711362909E0
1.414178671E1,2.300960051E0,-3.577007278E0,4.657693183E-1,4.278590806E0
1.415177871E1,1.934874065E0,-3.672088267E0,-3.418288118E-1,4.164710893E0
1.416176971E1,1.753803338E0,-3.426670686E0,-5.968065906E-1,3.895391668E0
1.417176171E1,1.504996126E0,-3.067238832E0,-7.045479709E-1,3.488460295E0
1.418175371E1,1.069630575E0,-2.895489151E0,-6.712048084E-1,3.158873673E0
1.419174471E1,5.831229365E-1,-2.694410421E0,-3.759595942E-1,2.782305787E0
1.420173671E1,1.722133648E-1,-2.632670256E0,-3.885759853E-1,2.666758597E0
1.421172771E1,-6.425271392E-2,-2.605296516E0,-4.860788910E-1,2.651032070E0
1.422171971E1,-3.039832932E-1,-2.688614661E0,-4.614425249E-1,2.744810347E0
1.423171071E1,-3.204356039E-1,-3.048216085E0,-4.329440729E-1,3.095438716E0
1.424170271E1,-1.078682649E-1,-3.656103149E0,-4.014142781E-1,3.679654769E0
1.425169371E1,4.333008993E-1,-4.795910836E0,-5.765354633E-1,4.849835416E0
1.426168571E1,1.232833380E0,-6.286024044E0,-6.700739568E-1,6.440727873E0
1.427167771E1,2.080580832E0,-7.897820733E0,-5.223662728E-1,8.183963310E0
1.428166813E1,3.169987859E0,-9.440864106E0,-3.166213920E-1,9.963884143E0
1.429166012E1,3.980976790E0,-1.084037412E1,-2.694947342E-1,1.155138584E1
1.430165112E1,4.081078490E0,-1.172992975E1,-4.375839847E-1,1.242730596E1
1.431164312E1,5.982029057E0,-1.331970232E1,-4.387399793E-2,1.460140632E1
1.432163412E1,8.007741956E0,-1.498197802E1,3.468217492E-1,1.699128841E1
1.433162613E1,9.262549757E0,-1.548835508E1,1.928996444E-2,1.804672666E1
1.434161813E1,9.520005001E0,-1.371314626E1,8.720128119E-1,1.671649729E1
1.435160913E1,7.400301619E0,-8.063331435E0,2.343074037E0,1.119248738E1
1.436160113E1,5.019645188E0,-1.753136171E0,2.769723144E0,5.995138909E0
1.437159213E1,4.139610288E0,1.682486603E0,2.589445299E0,5.164529162E0
1.438158412E1,3.072818245E0,3.784845389E0,1.860566479E0,5.218138960E0
1.439157512E1,1.943424595E0,6.722720422E0,-6.714216670E-1,7.030126320E0
1.440156712E1,2.056618942E0,1.000424450E1,-5.471772952E0,1.158684119E1
1.441155913E1,3.258547449E0,1.003206556E1,-2.923937609E0,1.094577005E1
1.442155013E1,4.118950906E0,9.412827292E0,2.108732836E0,1.048874770E1
1.443154213E1,4.229201911E0,9.812773919E0,3.536086124E0,1.125524704E1
1.444153313E1,3.083223365E0,1.066774911E1,3.098588094E0,1.152858992E1
1.445152513E1,1.444172804E0,1.110595817E1,2.303697717E0,1.143393917E1
1.446151712E1,1.014391782E-1,1.114375691E1,1.578321379E0,1.125543008E1
1.447150812E1,-5.235382741E-1,1.104026587E1,1.153087226E0,1.111265823E1
1.448150012E1,-7.310246750E-1,1.097138801E1,9.985852233E-1,1.104096573E1
1.449149112E1,-7.076176129E-1,1.096843165E1,8.471856073E-1,1.102383504E1
1.450148313E1,-6.169026668E-1,1.107386397E1,6.540859151E-1,1.111030425E1
1.451147412E1,-6.036158194E-1,1.112449384E1,5.253898680E-1,1.115323943E1
1.452146613E1,-5.750064895E-1,1.148382161E1,4.263789654E-1,1.150611100E1
1.453145813E1,-6.246967860E-1,1.193803099E1,2.919747933E-1,1.195792955E1
1.454144913E1,-1.152770526E0,1.229745699E1,-2.004834831E-1,1.235299648E1
1.455144112E1,-1.576334642E0,1.223463100E1,-5.965902436E-1,1.235018002E1
1.456143212E1,-1.804574711E0,1.194858404E1,-4.432060095E-1,1.209221163E1
1.457142412E1,-1.948850518E0,1.182092763E1,-6.949064970E-2,1.198070020E1
1.458141512E1,-2.086497922E0,1.152548887E1,4.665048981E-1,1.172211560E1
1.459140713E1,-2.575277788E0,1.093985982E1,7.516993332E-1,1.126399753E1
1.460139913E1,-3.297921722E0,1.023436635E1,8.544734307E-1,1.078650394E1
1.461139013E1,-3.942883349E0,9.675291261E0,9.322427145E-1,1.048935968E1
1.462138213E1,-4.459069992E0,9.311231920E0,1.012822974E0,1.037343508E1
1.463137313E1,-4.910247291E0,9.062155151E0,1.112293468E0,1.036679223E1
1.464136512E1,-5.280810490E0,8.856530796E0,1.180409072E0,1.037875054E1
1.465135612E1,-5.622128255E0,8.699254729E0,1.279547371E0,1.043659908E1
1.466134812E1,-5.966149188E0,8.544452033E0,1.402704789E0,1.051523549E1
1.467134013E1,-6.347282399E0,8.361497918E0,1.527111465E0,1.060823787E1
1.468133113E1,-6.589980440E0,8.209714140E0,1.614327364E0,1.065050709E1
1.469132313E1,-6.778863047E0,8.028061030E0,1.747150376E0,1.065153898E1
1.470131413E1,-6.947953999E0,7.828832359E0,1.854789430E0,1.063037745E1
1.471130613E1,-7.064367385E0,7.616703562E0,1.927771014E0,1.056578254E1
1.472129713E1,-7.124135284E0,7.392453486E0,1.995300507E0,1.045862784E1
1.473128912E1,-7.139138070E0,7.200343215E0,2.001087058E0,1.033521089E1
1.474128112E1,-7.163360161E0,6.879716992E0,1.868718813E0,1.010625275E1
1.475127212E1,-7.237804572E0,6.395756986E0,1.523508557E0,9.778169602E0
1.476126413E1,-7.304855179E0,5.892285406E0,8.871372199E-1,9.426926802E0
1.477125513E1,-7.284599254E0,5.337589293E0,-2.565538958E-2,9.030830746E0
1.478124713E1,-7.059317729E0,4.872571342E0,-1.020392926E0,8.638120167E0
1.479123813E1,-6.681615080E0,4.385565521E0,-1.935007381E0,8.223224342E0
1.480123013E1,-6.330825995E0,3.784074726E0,-2.778484612E0,7.881532595E0
1.481122212E1,-5.198953564E0,2.233010142E0,-1.570595746E0,5.872156627E0
1.482121312E1,-4.694636477E0,-4.423404608E0,-2.358302525E0,6.867875274E0
1.483120512E1,-3.619937536E0,-9.754609911E0,-9.527333901E0,1.410767357E1
1.484119612E1,-3.911855099E0,-3.094114389E0,-2.252856031E0,5.472797682E0
1.485118813E1,-4.344040934E0,-1.603715837E0,2.186560592E0,5.120902591E0
1.486118013E1,-3.564811741E0,-4.774445123E0,8.606639510E0,1.046792494E1
1.487117113E1,5.072383565E-1,-1.010821501E1,1.155563712E1,1.536118650E1
1.488116313E1,5.100226251E0,-1.553099415E1,1.132476565E1,1.988653826E1
1.489115413E1,1.654981183E1,-1.944450050E1,1.119562405E1,2.788058230E1
1.490114612E1,2.528311958E1,-1.932407709E1,1.177313132E1,3.393026248E1
1.491113712E1,2.885035850E1,-1.500449448E1,1.062668529E1,3.421117478E1
1.492112912E1,3.012621627E1,-7.011988027E0,9.966572502E-1,3.094753962E1
1.493112113E1,2.699722617E1,3.226996750E0,-1.626473902E1,3.168288914E1
1.494111213E1,1.983460451E1,8.229561344E-1,-1.032648573E1,2.237688764E1
1.495110413E1,1.078942733E1,-5.171921886E0,-1.073553238E1,1.607520369E1
1.496109513E1,4.900508754E0,-7.829829894E0,-5.585669696E0,1.079448601E1
1.497108713E1,4.906729022E0,-6.822173374E0,4.707084614E0,9.631961628E0
1.498107813E1,3.581896135E0,-4.468988039E0,4.369051230E0,7.203502111E0
1.499107012E1,8.864911026E-1,-2.869591248E0,2.168598969E0,3.704489424E0
1.500106212E1,-4.646998626E-1,-1.642585203E0,1.610836576E0,2.347088960E0
1.501105312E1,-4.191699332E-1,2.669262716E-1,3.160790774E0,3.199617381E0
1.502104513E1,-1.080743208E0,2.491382522E0,4.882377123E0,5.586823706E0
1.503103613E1,-2.528388088E0,4.539299053E0,5.262681198E0,7.395525378E0
1.504102813E1,-3.215351728E0,6.659133121E0,5.287431293E0,9.090625409E0
1.505101913E1,-2.924149863E0,8.432671981E0,5.252407640E0,1.035608011E1
1.506101113E1,-1.122375968E0,8.904047610E0,5.100819744E0,1.032279777E1
1.507100312E1,3.159402060E0,7.812518628E0,2.739722250E0,8.861340005E0
1.508099412E1,9.040363748E0,4.828331893E0,-1.310194967E0,1.033235580E1
1.509098612E1,1.276736731E1,1.788710046E0,-2.683411224E0,1.316836541E1
1.510097712E1,1.287793114E1,-2.768519202E-1,-1.048438511E0,1.292350497E1
1.511096913E1,1.064206347E1,-2.298167128E0,2.414783120E-2,1.088740879E1
1.512096113E1,7.361942130E0,-4.230849657E0,-3.820769513E-1,8.499662554E0
1.513095213E1,5.878828624E0,-4.091129854E0,-9.542989236E-1,7.225555751E0
1.514094413E1,6.113809510E0,-3.035497221E0,-5.524297686E-1,6.848217925E0
1.515093513E1,6.843090034E0,-2.101339909E0,-2.382723202E-1,7.162421680E0
1.516092712E1,6.855173889E0,-1.802877557E0,4.949313562E-2,7.088457245E0
1.517091812E1,6.697434722E0,-1.626152188E0,7.548989296E-2,6.892437995E0
1.518091012E1,6.531811169E0,-1.395415211E0,-5.103373808E-1,6.698670391E0
1.519090213E1,5.697984769E0,-1.237770477E0,-1.213401913E0,5.955791331E0
1.520089313E1,3.990627034E0,-1.086273797E0,-1.218359182E0,4.311553547E0
1.521088513E1,2.341606386E0,-8.544258490E-1,-6.570393437E-1,2.577763507E0
1.522087613E1,1.020927946E0,-8.493685922E-1,1.068841420E-1,1.332345712E0
1.523086813E1,1.631957889E-2,-8.737757474E-1,7.139946594E-1,1.128511745E0
1.524085913E1,-7.351277393E-1,-1.186317610E0,9.842887080E-1,1.707801665E0
1.525085112E1,-1.229162498E0,-1.495815412E0,1.014742761E0,2.185865290E0
1.526084312E1,-1.315669130E0,-1.943571213E0,7.467490804E-1,2.462943059E0
1.527083412E1,-1.200773097E0,-2.493191943E0,2.945324385E-1,2.782914201E0
1.528082613E1,-1.092475646E0,-3.243971509E0,-3.421235480E-1,3.440043999E0
1.529081783E1,-8.472036606E-1,-3.814639292E0,-6.481211704E-1,3.960970591E0
1.530080983E1,-5.226498628E-1,-4.079235740E0,-2.701671274E-1,4.121446030E0
1.531080183E1,-9.645040691E-2,-4.285883943E0,1.917032675E-1,4.291253196E0
1.532079283E1,3.824961966E-1,-4.588977875E0,1.011877845E-1,4.606002631E0
1.533078483E1,1.634438862E0,-5.611773421E0,-9.982647228E-1,5.929580405E0
1.534077583E1,3.582406012E0,-7.232831515E0,-2.696475073E0,8.509903782E0
1.535076783E1,5.243721601E0,-8.735441392E0,-3.079344907E0,1.064363273E1
1.536075983E1,6.542068940E0,-1.050570406E1,-2.250222006E0,1.257902949E1
1.537075083E1,7.555719441E0,-1.260073453E1,-1.906802752E0,1.481564388E1
1.538074283E1,8.547158124E0,-1.475652225E1,-2.505169380E0,1.723614616E1
1.539073383E1,9.429707619E0,-1.516646352E1,-2.924689561E0,1.809681769E1
1.540072583E1,1.006252370E1,-1.298544039E1,-6.833898211E-1,1.644211261E1
1.541071683E1,8.790797567E0,-8.009445249E0,1.910401129E0,1.204487308E1
1.542070883E1,5.562550975E0,-1.615830098E0,2.608149372E0,6.352583994E0
1.543070083E1,3.038939477E0,2.250931274E0,2.598116720E0,4.588251871E0
1.544069183E1,1.336356579E0,4.523609512E0,2.189008090E0,5.200062340E0
1.545068383E1,2.201777825E-1,6.410770882E0,1.879875154E0,6.684339320E0
1.546067483E1,-6.082659638E-1,8.908120780E0,1.565774424E0,9.065111850E0
1.547066683E1,-1.210820660E0,1.115489001E1,-2.263340235E-1,1.122269508E1
1.548065883E1,-7.061585864E-1,1.182428276E1,-2.249918536E0,1.205713300E1
1.549064983E1,3.769967441E-1,1.129777023E1,-9.447007191E-1,1.134346500E1
1.550064183E1,4.610918382E-1,1.093290163E1,1.104293454E0,1.099820021E1
1.551063283E1,7.966071188E-2,1.099932483E1,1.603087846E0,1.111581681E1
1.552062483E1,-3.444170818E-1,1.119311442E1,1.183577020E0,1.126078542E1
1.553061583E1,-7.565471135E-1,1.122956597E1,8.071285987E-1,1.128392538E1
1.554060783E1,-1.104882707E0,1.125533231E1,4.726795578E-1,1.131930639E1
1.555059983E1,-1.394393410E0,1.115504671E1,1.960571408E-1,1.124356876E1
1.556059083E1,-1.621514908E0,1.104704396E1,4.591229162E-3,1.116541589E1
1.557058283E1,-1.778068990E0,1.092724738E1,-1.304303312E-1,1.107173323E1
1.558057383E1,-1.934466222E0,1.087766883E1,-2.614903893E-1,1.105143502E1
1.559056583E1,-2.162705560E0,1.082281026E1,-3.482151407E-1,1.104227200E1
1.560055783E1,-2.434908652E0,1.074621173E1,-4.436241585E-1,1.102754048E1
1.561054883E1,-2.740371290E0,1.062860785E1,-5.224317251E-1,1.098862478E1
1.562054083E1,-3.119009494E0,1.055877573E1,-5.625033518E-1,1.102417231E1
1.563053183E1,-3.466643714E0,1.043856048E1,-5.645487443E-1,1.101362242E1
1.564052383E1,-3.743599422E0,1.021123126E1,-5.576168336E-1,1.089012016E1
1.565051483E1,-3.983291995E0,9.916346819E0,-5.423977007E-1,1.070022171E1
1.566050683E1,-4.227355653E0,9.604268056E0,-4.613938103E-1,1.050358915E1
1.567049883E1,-4.488182109E0,9.295175466E0,-3.780622530E-1,1.032893976E1
1.568048983E1,-4.757804824E0,9.034544599E0,-3.575262469E-1,1.021702148E1
1.569048183E1,-5.053820994E0,8.784666762E0,-4.005529833E-1,1.014257953E1
1.570047283E1,-5.345808724E0,8.561423576E0,-5.944788140E-1,1.011083823E1
1.571046483E1,-5.692748587E0,8.336480021E0,-8.363553214E-1,1.012935219E1
1.572045683E1,-5.849687855E0,8.208095046E0,-8.088932884E-1,1.011167546E1
1.573044783E1,-5.962723305E0,8.134401417E0,-5.264177720E-1,1.009948867E1
1.574043983E1,-5.999687063E0,8.080435710E0,-1.035354416E-1,1.006481027E1
1.575043083E1,-6.009943079E0,8.027618980E0,4.031281701E-1,1.003616434E1
1.576042283E1,-6.015377482E0,7.931833402E0,8.177027035E-1,9.988362482E0
1.577041483E1,-6.027181256E0,7.840727350E0,1.111689012E0,9.951872775E0
1.578040583E1,-6.051140807E0,7.657922924E0,1.331088384E0,9.850476377E0
1.579039783E1,-6.100036978E0,7.449326429E0,1.428697270E0,9.733657651E0
1.580038883E1,-6.060799237E0,7.138118901E0,1.182129250E0,9.438403382E0
1.581038083E1,-5.866062398E0,6.565145561E0,4.400966795E-1,8.815072852E0
1.582037283E1,-5.555975781E0,5.707697579E0,-8.370756984E-1,8.009205594E0
1.583036383E1,-5.255114316E0,4.070747922E0,-3.920399051E0,7.717301591E0
1.584035583E1,-4.951027527E0,1.979243322E0,-6.775099779E0,8.621603953E0
1.585034683E1,-4.374711919E0,8.089406508E-1,-6.106301100E0,7.555091163E0
1.586033883E1,-4.917395512E0,1.750979717E0,6.003396244E-1,5.254247450E0
1.587032983E1,-6.060316842E0,1.512710357E0,3.316250989E0,7.072004912E0
1.588032183E1,-5.368070244E0,-8.713257641E-1,4.846530182E0,7.284520680E0
1.589031383E1,-4.078259840E0,-2.846736236E0,6.925652719E0,8.526475010E0
1.590030483E1,-2.412957035E0,-7.334069622E0,8.985757771E0,1.184714234E1
1.591029683E1,1.172239269E0,-1.430117384E1,1.125524343E1,1.823672730E1
1.592028783E1,7.527586733E0,-2.139636073E1,1.264760347E1,2.596980339E1
1.593027983E1,1.711779282E1,-2.483830551E1,9.353686214E0,3.158245870E1
1.594027183E1,2.830421920E1,-1.998249696E1,-1.095071956E0,3.466450911E1
1.595026283E1,3.231256505E1,-7.062369391E0,-1.162640363E1,3.505926672E1
1.596025483E1,2.547785057E1,2.826068083E0,-5.867091508E0,2.629696357E1
1.597024583E1,2.437373019E1,4.948622568E0,-8.603715903E0,2.631713351E1
1.598023783E1,2.261252311E1,1.022291224E0,-7.365668560E0,2.380387267E1
1.599022883E1,8.776394121E0,-8.239548973E0,6.063808215E-1,1.205333807E1
1.600022083E1,2.899585125E0,-1.285763780E1,8.553815179E0,1.571286727E1
1.601021283E1,5.274188519E0,-1.041046695E1,1.092535872E1,1.598619248E1
1.602020383E1,8.175372273E-1,-7.228040891E0,5.547803128E0,9.148281904E0
1.603019583E1,-4.962672842E0,-4.088726941E0,-7.809664017E-1,6.477323387E0
1.604018683E1,-5.473154064E0,-1.080128081E0,-1.675506781E0,5.824896141E0
1.605017883E1,-3.118414832E0,1.659705850E0,4.397281587E-1,3.559844860E0
1.606017083E1,-1.283162704E0,4.164057205E0,2.936438956E0,5.254384138E0
1.607016183E1,-9.500398117E-1,6.523426262E0,4.691949681E0,8.091480560E0
1.608015383E1,-5.801157135E-1,8.523691494E0,4.776641922E0,9.788062064E0
1.609014483E1,1.840341545E0,9.104943906E0,2.499863616E0,9.619572685E0
1.610013683E1,6.417917349E0,7.472175593E0,-3.594353628E-1,9.856584853E0
1.611012883E1,1.035206847E1,3.952073418E0,-2.411531886E-1,1.108342730E1
1.612011983E1,1.199523664E1,1.138900638E0,2.014696745E0,1.221645610E1
1.613011183E1,1.330532051E1,-7.730010322E-1,2.274347618E0,1.352041943E1
1.614010283E1,1.324127244E1,-2.815171797E0,-4.403187275E-1,1.354438514E1
1.615009483E1,8.738170872E0,-3.942523161E0,-3.205741829E0,1.010820952E1
1.616008683E1,3.974353064E0,-2.716614346E0,-2.018259453E0,5.220042816E0
1.617007783E1,3.232109263E0,-1.508878969E0,6.348737186E-1,3.623025072E0
1.618006983E1,3.995712942E0,-1.019460880E0,2.052793109E0,4.606406620E0
1.619006083E1,4.621287249E0,-8.026347211E-1,2.115965842E0,5.145661258E0
1.620005283E1,4.619462333E0,-1.329137022E0,1.413018839E0,5.010255454E0
1.621004483E1,4.651564132E0,-2.027950628E0,3.735493354E-1,5.088140302E0
1.622003583E1,4.874068229E0,-2.287519349E0,-2.568265953E-1,5.390291808E0
1.623002783E1,4.918791243E0,-2.148002152E0,-3.461294389E-1,5.378496642E0
1.624001883E1,4.502024515E0,-1.802609462E0,-2.953154538E-1,4.858480918E0
1.625001083E1,3.814974922E0,-1.316810214E0,-4.251376746E-1,4.058172598E0
1.626000183E1,3.038275818E0,-8.117148623E-1,-1.029816883E0,3.309157563E0
1.626999383E1,2.018503867E0,-2.701758617E-1,-1.198079358E0,2.362783740E0
1.627998583E1,1.551030085E0,3.374980715E-1,-6.555494732E-1,1.717365536E0
1.628997596E1,1.517491626E0,8.180728322E-1,-3.982362434E-1,1.769354712E0
1.629996796E1,1.253350090E0,9.103945202E-1,-3.782318953E-1,1.594604653E0
1.630995896E1,8.254596198E-1,7.765903455E-1,-3.074676490E-1,1.174313631E0
1.631995096E1,4.067878693E-1,4.217438775E-1,-1.058924907E-1,5.954473012E-1
1.632994296E1,4.841786921E-2,-1.456792849E-1,3.105526400E-1,3.464241422E-1
1.633993396E1,-8.893439591E-2,-9.635135508E-1,5.952699423E-1,1.136051933E0
1.634992596E1,1.600213355E-1,-2.215505333E0,5.252010395E-1,2.282522035E0
1.635991696E1,6.118491375E-1,-3.751441416E0,6.730618840E-1,3.860140459E0
1.636990896E1,1.507535571E0,-5.373791744E0,8.317868918E-1,5.642886729E0
1.637990096E1,2.792423789E0,-7.161642249E0,7.746453423E-2,7.687180958E0
1.638989196E1,3.582908288E0,-9.218353577E0,-1.674815640E0,1.003096615E1
1.639988396E1,3.748590898E0,-1.117852445E1,-3.337101282E0,1.225347247E1
1.640987496E1,3.649043806E0,-1.232453194E1,-3.350939888E0,1.328301195E1
1.641986696E1,4.221120182E0,-1.339014723E1,-2.564588200E0,1.427203598E1
1.642985896E1,5.167663359E0,-1.400410020E1,-1.972469323E0,1.505689882E1
1.643984996E1,5.771946200E0,-1.241325525E1,-1.046297261E0,1.372949405E1
1.644984196E1,5.121721786E0,-8.556891984E0,1.382095035E-1,9.973541816E0
1.645983296E1,3.941035337E0,-3.170364420E0,1.131483080E0,5.182974439E0
1.646982496E1,3.016884949E0,9.401287812E-1,2.048922837E0,3.766101660E0
1.647981696E1,2.081765185E0,3.213805724E0,2.603236542E0,4.630241247E0
1.648980796E1,1.405441140E0,4.894355729E0,2.406712939E0,5.632250879E0
1.649979996E1,1.017440667E0,6.470865641E0,2.189057207E0,6.906465022E0
1.650979096E1,8.201667202E-1,7.809549412E0,2.212044951E0,8.158117327E0
1.651978296E1,8.735936067E-1,8.916299281E0,2.492907768E0,9.299362763E0
1.652977496E1,8.730156094E-1,9.852277708E0,2.713724652E0,1.025640452E1
1.653976596E1,3.397504190E-1,1.147768438E1,1.594050390E0,1.159282820E1
1.654975796E1,-4.119778579E-1,1.234862013E1,4.840561929E-1,1.236496888E1
1.655974896E1,-8.468724158E-1,1.222347919E1,5.484312598E-1,1.226504844E1
1.656974096E1,-1.274241315E0,1.225016004E1,6.162042899E-1,1.233165924E1
1.657973296E1,-1.565954811E0,1.216234772E1,6.032174778E-1,1.227757256E1
1.658972396E1,-1.625849302E0,1.194137092E1,6.172684101E-1,1.206734211E1
1.659971596E1,-1.621166560E0,1.158877913E1,7.097677803E-1,1.172312898E1
1.660970696E1,-1.595450798E0,1.119662275E1,8.087611413E-1,1.133860304E1
1.661969896E1,-1.697259885E0,1.095595603E1,7.824486709E-1,1.111422016E1
1.662969096E1,-1.992530243E0,1.071371057E1,6.575274400E-1,1.091723927E1
