"Time (s)","Linear Acceleration x (m/s^2)","Linear Acceleration y (m/s^2)","Linear Acceleration z (m/s^2)","Absolute acceleration (m/s^2)"
"8.266500023E-3","-5.444115914E-1","-5.510220149E-1","-7.833052880E-1","1.101624444E0"
"1.828650001E-2","3.395697400E-2","-4.749874538E-1","-3.333503491E-1","5.812818702E-1"
"2.830650000E-2","-4.099105749E-1","-5.966542706E-1","-2.571897805E-1","7.682249548E-1"
"3.832649998E-2","-6.858921370E-1","-2.031743717E-1","-1.502173090E-1","7.309535477E-1"
"4.834649997E-2","-7.015635520E-1","-1.979384825E-1","-2.419349796E-1","7.680518177E-1"
"5.836650002E-2","-4.611603968E-1","-4.965958393E-1","-3.143264329E-1","7.470458122E-1"
"6.838550000E-2","-5.985823900E-2","-4.673468971E-1","-2.775702506E-1","5.468467565E-1"
"7.840549998E-2","-5.486347429E-2","-1.571424589E-1","-1.296877348E-1","2.110039378E-1"
"8.842550003E-2","-6.149520356E-1","-3.202838686E-1","2.239927983E-1","7.286429416E-1"
"9.844550001E-2","-1.125425803E0","-6.108852240E-1","3.471182030E-1","1.326746035E0"
"1.084655000E-1","-1.325452984E0","-5.753093022E-1","1.964886653E-1","1.458222960E0"
"1.184855000E-1","-1.283595106E0","-2.713792187E-1","-1.769379151E-1","1.323846706E0"
"1.285045000E-1","-1.326409734E0","3.304249871E-1","-1.188384016E0","1.811297884E0"
"1.385245000E-1","-1.351489027E0","1.062369795E0","-2.297477449E0","2.869417153E0"
"1.485445000E-1","-6.661072057E-1","3.391151190E-1","-2.228623561E0","2.350629884E0"
"1.585645000E-1","5.879609227E-1","-8.684232062E-1","-1.944107988E0","2.208939288E0"
"1.685845000E-1","9.455922733E-1","-1.715945248E0","-1.705758521E0","2.597734585E0"
"1.786045000E-1","4.220906905E-1","-1.602688774E0","-1.463415406E0","2.210962801E0"
"1.886245000E-1","-3.287094871E-1","-6.537818599E-1","-1.222732315E0","1.424975425E0"
"1.986435000E-1","-6.916522291E-1","5.550753048E-1","-7.330443764E-1","1.150584833E0"
"2.086635000E-1","-1.071912377E0","1.102508591E0","-2.970502496E-2","1.537986907E0"
"2.186835000E-1","-1.286374872E0","8.391891745E-1","3.055854303E-1","1.566008058E0"
"2.287035000E-1","-1.090071271E0","3.887015542E-1","2.553648645E-1","1.185139438E0"
"2.387235000E-1","-5.200933870E-1","1.039225638E-2","1.703656447E-1","5.473843102E-1"
"2.487435000E-1","-3.447189443E-2","-6.237283409E-2","8.487175047E-2","1.108237157E-1"
"2.587625000E-1","-2.136283162E-1","-6.703095996E-1","-2.380202687E-1","7.427015990E-1"
"2.687825000E-1","5.780187558E-1","-1.036192102E0","-5.913248259E-1","1.325694084E0"
"2.788025000E-1","1.535801304E0","-5.779180375E-1","-4.514734608E-1","1.701911628E0"
"2.888225000E-1","1.455072891E0","4.887257794E-1","-1.857578552E-1","1.546155227E0"
"2.988425000E-1","1.247592191E0","3.658950743E-1","-2.130719537E-1","1.317484398E0"
"3.088625000E-1","2.348466047E0","-4.084435084E-1","-5.621840572E-1","2.449116124E0"
"3.188815000E-1","2.181587681E0","-4.382537833E-1","-5.518754160E-1","2.292587548E0"
"3.289015000E-1","9.535748921E-1","-8.586539707E-1","-8.812280238E-2","1.286218234E0"
"3.389215000E-1","1.510002073E0","-4.428184122E-1","-1.493204631E0","2.169298153E0"
"3.489415000E-1","1.714946543E0","2.590813547E-2","-1.472065192E0","2.260240874E0"
"3.589615000E-1","1.117172677E0","3.507098553E-1","-2.310356526E0","2.590138890E0"
"3.689815000E-1","1.428543196E0","2.855341583E-2","-2.324040765E0","2.728134241E0"
"3.790005000E-1","2.814430954E0","-9.542559466E-1","-1.528753363E0","3.341962426E0"
"3.890205000E-1","3.539796767E0","-2.384020626E0","-2.485481805E0","4.938758478E0"
"3.990405000E-1","3.889900559E0","-3.627392443E0","-2.537790411E0","5.893189498E0"
"4.090605000E-1","3.126314128E0","-3.362252204E0","-2.447923969E0","5.202971427E0"
"4.190805000E-1","1.716907699E0","-1.326164882E0","-3.488356472E0","4.107933327E0"
"4.291005000E-1","-1.951026413E0","1.361245837E0","1.526947743E-1","2.383864507E0"
"4.391230833E-1","-4.668940887E0","2.750287583E0","5.013468189E0","7.382272962E0"
"4.491420834E-1","-2.870480902E0","-1.064672428E0","-1.119048318E0","3.259671322E0"
"4.591620833E-1","1.091373811E0","-2.092787187E0","-2.811128447E0","3.670599154E0"
"4.691820833E-1","2.324691560E0","-1.828555897E-1","-2.952331688E0","3.762165522E0"
"4.792020833E-1","1.178252180E0","-2.352902037E-1","-3.687200981E0","3.878026657E0"
"4.892220834E-1","6.218841290E-1","-7.762304494E-1","-3.870148664E0","3.995913445E0"
"4.992420833E-1","4.659922434E-1","-8.595807543E-1","-3.399528496E0","3.537346723E0"
"5.092610833E-1","6.760764161E-1","-6.686051363E-1","-3.648658474E0","3.770519965E0"
"5.192810833E-1","1.883050485E0","-7.323397869E-1","-3.247621341E0","3.824819613E0"
"5.293010834E-1","1.704044848E0","-1.166309900E0","-2.028302046E0","2.894487315E0"
"5.393210833E-1","6.429762784E-1","-1.733486018E-1","-2.177058721E-1","7.006169275E-1"
"5.493410833E-1","6.400599065E-1","9.440360369E-1","1.364693356E-1","1.148696915E0"
"5.593610833E-1","9.724817178E-1","1.215832747E0","-8.652516764E-1","1.781187925E0"
"5.693800834E-1","8.561133555E-1","-4.898587505E-1","-3.165658581E0","3.315763249E0"
"5.794000833E-1","7.478259183E-1","-9.739952695E-1","-3.347350282E0","3.565482338E0"
"5.894200833E-1","9.764266880E-1","9.049064697E-1","-5.500084001E-1","1.440407594E0"
"5.994400833E-1","2.162082539E0","5.218195581E0","6.925769663E0","8.937026992E0"
"6.094600834E-1","8.130258665E0","5.041350637E0","7.269989986E0","1.201536835E1"
"6.194800833E-1","6.452244598E0","8.795945310E-1","-2.437258063E0","6.953083758E0"
"6.294990833E-1","6.357510349E0","3.603967547E-1","-5.050254192E0","8.127292972E0"
"6.395190833E-1","5.852084044E0","1.663483737E0","-2.947859738E0","6.760469128E0"
"6.495390834E-1","3.664181370E0","4.914332960E-1","-4.047694690E0","5.481930691E0"
"6.595590833E-1","1.651310272E0","-1.389875998E0","-5.787776366E0","6.177130092E0"
"6.695790833E-1","1.595184749E-1","-2.437383340E0","-6.113169824E0","6.583094181E0"
"6.795990833E-1","-1.017301210E0","-2.898204305E0","-6.999251037E0","7.643559709E0"
"6.896180834E-1","-1.840585666E0","-2.587021043E0","-7.836403919E0","8.455155815E0"
"6.996380833E-1","-2.779768075E0","-2.438861662E0","-8.078195642E0","8.884390895E0"
"7.096580833E-1","-4.145273609E0","-2.942696354E0","-8.130869699E0","9.589254256E0"
"7.196780833E-1","-3.868687445E0","-3.423753802E0","-7.553215663E0","9.150950743E0"
"7.296980833E-1","-3.286975442E0","-3.725148241E0","-6.801698763E0","8.422828684E0"
"7.397180834E-1","-3.867497537E0","-3.933358527E0","-6.190986325E0","8.291993618E0"
"7.497370833E-1","-4.455014071E0","-3.867151966E0","-5.132619241E0","7.819577673E0"
"7.597570833E-1","-5.093125978E0","-3.573356861E0","-4.160344515E0","7.484469117E0"
"7.697770833E-1","-4.127815577E0","-2.119325360E0","-3.570391738E0","5.854750088E0"
"7.797970833E-1","-3.601585464E0","-1.237842836E0","-3.654469437E0","5.278145471E0"
"7.898170833E-1","-3.592878376E0","-1.521289684E0","-3.290203105E0","5.103776425E0"
"7.998370833E-1","-3.611408787E0","-1.964225918E0","-1.529526365E0","4.386331928E0"
"8.098560834E-1","-4.024736767E0","-1.439057952E0","-1.757146776E-1","4.277881424E0"
"8.198760833E-1","-4.609648951E0","-6.435167804E-1","4.552888421E-1","4.676565538E0"
"8.298960833E-1","-4.793409982E0","6.008467242E-2","9.673692048E-1","4.890418449E0"
"8.399160833E-1","-4.384392570E0","6.763500658E-1","1.728750358E0","4.761189496E0"
"8.499360833E-1","-3.889959615E0","1.419099066E0","2.694503684E0","4.940240690E0"
"8.599560834E-1","-3.669575134E0","1.985432600E0","3.633730240E0","5.532785892E0"
"8.699750833E-1","-2.536856026E0","2.628649418E0","3.878783832E0","5.328264284E0"
"8.799950833E-1","-3.826827228E-2","3.676639155E0","3.265505928E0","4.917587712E0"
"8.900150833E-1","9.862329072E-1","3.852414059E0","2.448113126E0","4.669797352E0"
"9.000350834E-1","8.115666354E-1","2.674266179E0","1.634365772E0","3.237513162E0"
"9.100550833E-1","3.885767162E-2","6.564432201E-1","8.325113618E-1","1.060897162E0"
"9.200750833E-1","-4.939166451E-1","-1.825743386E0","5.054973480E-1","1.957758957E0"
"9.300940833E-1","7.703256387E-1","-4.355096265E0","2.629750156E-1","4.430510233E0"
"9.401140834E-1","5.388483458E0","-7.581343110E0","2.897637418E-1","9.305722989E0"
"9.501340833E-1","1.479238790E1","-1.131157317E1","1.849389819E0","1.871327523E1"
"9.601540833E-1","2.756835646E1","-1.273506495E1","3.251339586E0","3.054124042E1"
"9.701740833E-1","3.941624911E1","-1.018413877E1","2.845213037E0","4.080995729E1"
"9.801940834E-1","4.832291511E1","-5.924506488E0","1.901934360E0","4.872187656E1"
"9.902130833E-1","5.253440259E1","-2.249363635E0","1.302565520E0","5.259866699E1"
"1.000233083E0","4.997279822E1","-2.322906990E0","1.045054289E0","5.003767178E1"
"1.010253083E0","4.342730807E1","-6.117034834E0","2.806514994E0","4.394571342E1"
"1.020273083E0","3.701439536E1","-1.001473558E1","4.808269511E0","3.864556699E1"
"1.030293083E0","3.298400784E1","-1.105342795E1","4.455317541E0","3.507096943E1"
"1.040313083E0","3.051807094E1","-9.920830464E0","3.162569497E0","3.224557918E1"
"1.050332083E0","2.877778987E1","-8.190297875E0","1.641320450E0","2.996558196E1"
"1.060352083E0","2.692513234E1","-6.183823485E0","4.598624611E-1","2.762994567E1"
"1.070372083E0","2.315568968E1","-4.094247297E0","-1.443103787E-1","2.351530674E1"
"1.080392083E0","1.783290729E1","-2.888173699E0","-6.440368903E-1","1.807675063E1"
"1.090412083E0","1.232385951E1","-2.364722183E0","-8.539495202E-1","1.257770464E1"
"1.100432083E0","6.764101167E0","-1.615347411E0","-1.142584676E0","7.047546495E0"
"1.110451083E0","2.445026674E0","-1.088877854E0","-1.192898651E0","2.930327219E0"
"1.120471083E0","-8.013597357E-1","-9.448214641E-1","-1.154655449E0","1.693544871E0"
"1.130491083E0","-3.464610345E0","-7.372700129E-1","-8.685804963E-1","3.647125442E0"
"1.140511083E0","-5.322747890E0","-9.750699147E-1","-2.945874023E-1","5.419334662E0"
"1.150531083E0","-6.472695819E0","-1.228835639E0","-5.714483857E-2","6.588557788E0"
"1.160551083E0","-7.437549552E0","-1.183041561E0","4.404157913E-1","7.543917864E0"
"1.170570083E0","-8.218370942E0","-1.423702286E0","1.180351842E0","8.423881506E0"
"1.180590083E0","-8.864138024E0","-2.303271894E0","2.017358251E0","9.378045566E0"
"1.190610083E0","-1.005778980E1","-3.370629802E0","2.592739620E0","1.091982507E1"
"1.200630083E0","-1.071501801E1","-3.711590302E0","2.282400988E0","1.156705960E1"
"1.210650083E0","-1.113892009E1","-4.110218382E0","1.769900430E0","1.200424856E1"
"1.220669083E0","-1.163703737E1","-4.751076726E0","1.418887689E0","1.264937197E1"
"1.230689083E0","-1.218702648E1","-5.262251428E0","1.816219003E0","1.339826690E1"
"1.240709083E0","-1.287628924E1","-5.841046255E0","2.505543602E0","1.435947056E1"
"1.250729083E0","-1.358007532E1","-6.411228719E0","2.846812542E0","1.528485005E1"
"1.260749083E0","-1.460020395E1","-6.781293150E0","2.236872228E0","1.625286097E1"
"1.270769083E0","-1.626527930E1","-8.070991287E0","1.777389836E-1","1.815851873E1"
"1.280788083E0","-1.820743549E1","-9.836299607E0","-1.504623073E0","2.074915390E1"
"1.290808083E0","-1.985924935E1","-1.133445566E1","-2.867359951E0","2.304520391E1"
"1.300828083E0","-2.126719807E1","-1.271596795E1","-3.255419773E0","2.499174489E1"
"1.310848083E0","-2.180956241E1","-1.295600667E1","-2.133478253E0","2.545715716E1"
"1.320868083E0","-2.072827424E1","-1.171193904E1","-2.592547247E-1","2.380962163E1"
"1.330888083E0","-1.902122991E1","-9.852644913E0","2.187378179E0","2.153291486E1"
"1.340907083E0","-1.741660425E1","-8.231030749E0","4.448604645E0","1.977063616E1"
"1.350927083E0","-1.624030468E1","-7.163668309E0","6.267810552E0","1.882421549E1"
"1.360947083E0","-1.558168834E1","-6.953939209E0","6.807160648E0","1.837072993E1"
"1.370967083E0","-1.533743961E1","-6.798811408E0","6.328199426E0","1.793061623E1"
"1.380987083E0","-1.509274300E1","-6.200389232E0","5.480866542E0","1.721265859E1"
"1.391006083E0","-1.481604223E1","-5.749136211E0","4.362095967E0","1.648015642E1"
"1.401026083E0","-1.482756358E1","-5.522649575E0","3.321339236E0","1.616748571E1"
"1.411046083E0","-1.461934306E1","-5.124088154E0","2.760232528E0","1.573532188E1"
"1.421066083E0","-1.382449712E1","-4.504410179E0","2.803504847E0","1.480763557E1"
"1.431086083E0","-1.290207430E1","-3.997617965E0","3.289098858E0","1.390189346E1"
"1.441103250E0","-1.221631986E1","-3.634474006E0","3.811715099E0","1.330327194E1"
"1.451122250E0","-1.122576177E1","-3.096790659E0","4.091214931E0","1.234284729E1"
"1.461142250E0","-9.921824491E0","-2.507737477E0","3.779220952E0","1.090934734E1"
"1.471162250E0","-8.701681323E0","-1.908878806E0","3.349452356E0","9.517452770E0"
"1.481182250E0","-7.484212672E0","-1.432958721E0","3.210896734E0","8.269018554E0"
"1.491202250E0","-6.768559084E0","-1.231930862E0","3.359589089E0","7.656231747E0"
"1.501221250E0","-6.107627249E0","-1.027752816E0","3.563320701E0","7.145392983E0"
"1.511241250E0","-6.121688048E0","-7.443599081E-1","3.489363948E0","7.085534348E0"
"1.521261250E0","-5.695959293E0","-9.255706760E-1","2.895823319E0","6.456502617E0"
"1.531281250E0","-3.980400839E0","-1.203483866E0","1.553200572E0","4.438963423E0"
"1.541301250E0","-8.869904548E-1","-1.559730450E0","9.703840292E-1","2.039891249E0"
"1.551321250E0","3.748603177E0","-2.329416695E0","1.422821696E0","4.637092785E0"
"1.561340250E0","8.983310711E0","-2.753441864E0","4.157813255E-1","9.405008641E0"
"1.571360250E0","1.649515674E1","-1.252345539E0","-2.166462396E0","1.668388817E1"
"1.581380250E0","2.962960055E1","1.658540062E0","-2.907901036E0","2.981811316E1"
"1.591400250E0","4.220978680E1","3.929128944E0","5.155875957E-1","4.239540053E1"
"1.601420250E0","4.769033993E1","4.141489291E0","6.665687850E0","4.833168578E1"
"1.611440250E0","4.816951223E1","2.139063513E0","1.238481440E1","4.978213665E1"
"1.621459250E0","4.499377247E1","6.328757250E-1","1.585221796E1","4.770883468E1"
"1.631479250E0","3.838357937E1","3.226119375E-1","1.630346279E1","4.170379051E1"
"1.641499250E0","3.040680544E1","-4.703215219E-1","1.483991758E1","3.383811716E1"
"1.651519250E0","2.179527415E1","-1.671270912E0","1.249560510E1","2.517870665E1"
"1.661539250E0","1.331293709E1","-2.812772684E0","9.048856829E0","1.634098510E1"
"1.671558250E0","6.275537648E0","-3.566137012E0","5.044595257E0","8.806114198E0"
"1.681578250E0","1.150193512E0","-3.706392127E0","1.309219359E0","4.095649283E0"
"1.691598250E0","-2.664358072E0","-3.485573198E0","-2.191087214E0","4.903966520E0"
"1.701618250E0","-4.819594399E0","-3.125642283E0","-4.320074367E0","7.187570687E0"
"1.711638250E0","-5.712156081E0","-2.633323975E0","-4.735003315E0","7.872952345E0"
"1.721657250E0","-5.979691340E0","-2.184197440E0","-4.983486591E0","8.084711843E0"
"1.731677250E0","-6.036231576E0","-1.836251710E0","-5.624273014E0","8.452239876E0"
"1.741697250E0","-5.890126614E0","-1.837323797E0","-6.253494229E0","8.784961032E0"
"1.751717250E0","-5.928555100E0","-2.137368990E0","-6.361290573E0","8.954447472E0"
"1.761737250E0","-6.264382330E0","-2.230974288E0","-6.126518433E0","9.041789666E0"
"1.771757250E0","-6.516807214E0","-2.447521242E0","-5.798791351E0","9.060083754E0"
"1.781776250E0","-6.594888008E0","-2.665956116E0","-4.945056351E0","8.663339550E0"
"1.791796250E0","-6.767652766E0","-2.552339161E0","-3.395292188E0","7.990217030E0"
"1.801816250E0","-6.906138806E0","-2.373003449E0","-1.972075367E0","7.564058423E0"
"1.811836250E0","-6.760199320E0","-2.464082457E0","-8.704486817E-1","7.247736068E0"
"1.821856250E0","-6.183110125E0","-2.754361339E0","4.251393557E-2","6.768985495E0"
"1.831875250E0","-5.713243663E0","-3.257662472E0","7.199230783E-1","6.616026540E0"
"1.841895250E0","-5.154384917E0","-3.619125357E0","8.891591871E-1","6.360531132E0"
"1.851915250E0","-4.413893527E0","-3.464773482E0","4.007582206E-1","5.625630498E0"
"1.861935250E0","-3.670295511E0","-2.710964473E0","-3.300466722E-1","4.574858284E0"
"1.871955250E0","-3.191691554E0","-1.844841854E0","-8.854672551E-1","3.791357106E0"
"1.881975250E0","-3.254306463E0","-1.216082131E0","-1.028334614E0","3.623097898E0"
"1.891994250E0","-3.489705425E0","-9.372779712E-1","-1.052404093E0","3.763520735E0"
"1.902014250E0","-3.822544143E0","-9.144687138E-1","-1.131632549E0","4.090072001E0"
"1.912034250E0","-4.093345072E0","-1.055826102E0","-8.707685244E-1","4.316072342E0"
"1.922054250E0","-4.759392636E0","-1.134048107E0","-2.212622948E-1","4.897636203E0"
"1.932074250E0","-5.349352137E0","-8.950038446E-1","6.637979941E-1","5.464176785E0"
"1.942093250E0","-5.941902539E0","-5.523958182E-1","1.205775390E0","6.088122963E0"
"1.952113250E0","-6.580857030E0","-1.650155886E-1","1.281789339E0","6.706555994E0"
"1.962133250E0","-6.748961556E0","2.450709144E-1","1.284253356E0","6.874434415E0"
"1.972153250E0","-6.518477179E0","1.061160517E0","1.153700233E0","6.704299412E0"
"1.982173250E0","-6.453930350E0","2.232507720E0","6.629570183E-1","6.861254965E0"
"1.992192250E0","-6.775872197E0","3.244230249E0","-7.223679453E-2","7.512835156E0"
"2.002212250E0","-7.410358245E0","3.594979280E0","-3.344256520E-1","8.243125976E0"
"2.012232250E0","-8.342987972E0","3.213659836E0","-8.167624712E-2","8.940902015E0"
"2.022252250E0","-8.965717608E0","2.623174670E0","5.362466857E-1","9.356959874E0"
"2.032272250E0","-9.244155586E0","2.292591954E0","1.214217307E0","9.601287103E0"
"2.042292250E0","-8.681110234E0","2.288009638E0","1.718361902E0","9.140537764E0"
"2.052311250E0","-7.655544276E0","2.908371152E0","2.109404974E0","8.456687902E0"
"2.062331250E0","-6.832884888E0","3.850779762E0","2.066944833E0","8.111046888E0"
"2.072351250E0","-6.103533613E0","4.790598933E0","1.474761343E0","7.897966936E0"
"2.082371250E0","-5.944461865E0","5.323127959E0","1.322798348E0","8.088393760E0"
"2.092391250E0","-6.132781971E0","5.065963322E0","1.902845649E0","8.178986529E0"
"2.102410250E0","-6.678562834E0","4.453454911E0","1.701361122E0","8.205552500E0"
"2.112430250E0","-6.628505990E0","3.834879721E0","9.180973497E-1","7.712736018E0"
"2.122450250E0","-4.768997857E0","4.136706854E0","-2.322660238E-2","6.313178568E0"
"2.132470250E0","2.178818733E-1","5.348006108E0","-9.592395285E-1","5.437718484E0"
"2.142490250E0","6.274355925E0","6.366617972E0","-1.735690126E0","9.105711773E0"
"2.152509250E0","1.056362658E1","6.331928195E0","-1.656603756E0","1.242690054E1"
"2.162529250E0","1.378005361E1","6.525920684E0","-1.517026187E0","1.532249610E1"
"2.172549250E0","1.744026092E1","5.059384620E0","-5.507562590E-1","1.816764723E1"
"2.182569250E0","2.415020751E1","2.570125806E0","2.705934699E0","2.443686052E1"
"2.192589250E0","3.401138936E1","2.112505752E0","6.725824124E0","3.473433455E1"
"2.202608250E0","4.623772784E1","3.548189276E0","8.588485075E0","4.716226456E1"
"2.212628250E0","5.927365075E1","5.132171345E0","7.063179231E0","5.991321521E1"
"2.222648250E0","6.569017938E1","5.712932006E0","3.862823857E0","6.605118218E1"
"2.232668250E0","6.137991606E1","1.482186284E0","7.510046840E-1","6.140240207E1"
"2.242688250E0","5.090445614E1","-5.260237647E0","-1.309167465E-1","5.117568655E1"
"2.252708250E0","4.093236197E1","-9.455965126E0","1.464755588E0","4.203592560E1"
"2.262727250E0","3.328436761E1","-1.173206749E1","3.592788913E0","3.547391531E1"
"2.272747250E0","2.706183556E1","-1.321935006E1","4.046991270E0","3.038868701E1"
"2.282767250E0","2.134877609E1","-1.344267745E1","2.947349861E0","2.540005292E1"
"2.292787250E0","1.534490885E1","-1.268979113E1","2.031427968E0","2.001558708E1"
"2.302807250E0","9.903811558E0","-1.259047968E1","1.998933821E0","1.614315330E1"
"2.312826250E0","5.517386497E0","-1.220307475E1","2.051782125E0","1.354866772E1"
"2.322846250E0","2.085753279E0","-1.133230856E1","2.041487664E0","1.170210477E1"
"2.332866250E0","-5.601322693E-1","-1.071908533E1","2.085846834E0","1.093450024E1"
"2.342886250E0","-2.648556556E0","-1.027281647E1","2.394696765E0","1.087566930E1"
"2.352906250E0","-4.215048434E0","-1.017046447E1","2.788164092E0","1.135688513E1"
"2.362925250E0","-5.640898402E0","-1.023893069E1","2.946306425E0","1.205554470E1"
"2.372945250E0","-7.308950568E0","-1.033550447E1","2.824219193E0","1.296995086E1"
"2.382965250E0","-8.829747040E0","-1.055375180E1","2.364182193E0","1.396192921E1"
"2.392985250E0","-1.016462310E1","-1.082581806E1","2.119988434E0","1.500040835E1"
"2.403005250E0","-1.126806403E1","-1.113747700E1","2.645184759E0","1.606267921E1"
"2.413024250E0","-1.236042449E1","-1.153563964E1","3.329866523E0","1.723192057E1"
"2.423044250E0","-1.370657749E1","-1.193879580E1","3.492679319E0","1.850956295E1"
"2.433064250E0","-1.502129119E1","-1.222895569E1","2.910377916E0","1.958716023E1"
"2.443087583E0","-1.596249644E1","-1.221864705E1","2.316913594E0","2.023523454E1"
"2.453107583E0","-1.648610408E1","-1.247112632E1","2.397686446E0","2.081032243E1"
"2.463127583E0","-1.703059563E1","-1.290244852E1","2.803507771E0","2.154933923E1"
"2.473146583E0","-1.751475210E1","-1.324219630E1","3.292373006E0","2.220274812E1"
"2.483166583E0","-1.809020934E1","-1.376354107E1","3.853375049E0","2.305513470E1"
"2.493186583E0","-1.923357506E1","-1.421734465E1","4.499663117E0","2.433742522E1"
"2.503206583E0","-2.039151906E1","-1.439545200E1","5.152816694E0","2.548714593E1"
"2.513226583E0","-2.089731023E1","-1.432132100E1","5.681958135E0","2.596309801E1"
"2.523245583E0","-2.112310631E1","-1.390544130E1","5.858263382E0","2.595893233E1"
"2.533265583E0","-2.078978461E1","-1.291404355E1","5.546951773E0","2.509494648E1"
"2.543285583E0","-1.967777751E1","-1.167112781E1","5.168086113E0","2.345504777E1"
"2.553305583E0","-1.835061860E1","-1.056823535E1","5.094780740E0","2.178048650E1"
"2.563325583E0","-1.679127611E1","-9.451803077E0","5.242998301E0","1.996929057E1"
"2.573344583E0","-1.521750737E1","-8.226956409E0","5.476828455E0","1.814527466E1"
"2.583364583E0","-1.413574909E1","-7.142792580E0","5.875486940E0","1.689260889E1"
"2.593384583E0","-1.365795673E1","-6.359546934E0","6.367321976E0","1.635623454E1"
"2.603404583E0","-1.371795618E1","-5.908361156E0","6.822678573E0","1.642071850E1"
"2.613424583E0","-1.413209809E1","-5.745303361E0","7.268332300E0","1.689832422E1"
"2.623443583E0","-1.482149885E1","-5.614616922E0","7.249166297E0","1.742845843E1"
"2.633463583E0","-1.516460411E1","-5.179539639E0","7.112895182E0","1.753243071E1"
"2.643483583E0","-1.510390182E1","-4.639259836E0","6.877053001E0","1.723207591E1"
"2.653503583E0","-1.458793533E1","-3.955882294E0","6.054248602E0","1.628222306E1"
"2.663523583E0","-1.350275642E1","-3.071160559E0","4.853600928E0","1.467357830E1"
"2.673542583E0","-1.212498284E1","-2.233322091E0","4.145896338E0","1.300735918E1"
"2.683562583E0","-1.064259088E1","-1.686319306E0","4.925007418E0","1.184753610E1"
"2.693582583E0","-8.415182959E0","-1.213336863E0","7.661489725E0","1.144490784E1"
"2.703602583E0","-6.693117723E0","-6.670264611E-1","9.461224696E0","1.160851075E1"
"2.713622583E0","-5.580360425E0","-7.345158282E-1","9.014786273E0","1.062762003E1"
"2.723641583E0","-4.417156858E0","-1.453576735E0","6.114274364E0","7.681699748E0"
"2.733661583E0","8.931037188E-1","-1.763115906E0","4.064121857E-1","2.017766789E0"
"2.743681583E0","1.211473384E1","1.921281408E-1","-4.543733289E0","1.294021644E1"
"2.753701583E0","2.594316965E1","1.744249572E0","-4.819753735E0","2.644466835E1"
"2.763721583E0","3.748828646E1","1.605706960E0","-2.820086381E0","3.762848394E1"
"2.773740583E0","4.508103631E1","2.789195834E0","1.205753024E0","4.518332977E1"
"2.783760583E0","4.628419215E1","2.805069562E0","5.071789488E0","4.664566332E1"
"2.793780583E0","4.626670196E1","2.255578787E0","6.161947882E0","4.672970092E1"
"2.803800583E0","4.775189941E1","2.497939590E0","4.288805212E0","4.800913923E1"
"2.813820583E0","4.649900950E1","2.481550137E0","-1.372443840E-2","4.656518188E1"
"2.823839583E0","4.033522559E1","2.223740551E0","-5.461849058E0","4.076404348E1"
"2.833859583E0","3.180714342E1","1.154791616E0","-9.198147354E0","3.313055736E1"
"2.843879583E0","2.307953789E1","3.996710770E-1","-1.040583946E1","2.532007703E1"
"2.853899583E0","1.612463506E1","-6.038150632E-1","-9.005940020E0","1.847905311E1"
"2.863919583E0","9.964525537E0","-2.013315632E0","-6.776247003E0","1.221731282E1"
"2.873938583E0","4.501031073E0","-2.747527113E0","-5.271822735E0","7.456560930E0"
"2.883958583E0","5.859629291E-1","-2.725376691E0","-4.229823178E0","5.065810377E0"
"2.893978583E0","-2.087815592E0","-2.835587350E0","-3.101000947E0","4.692092970E0"
"2.903998583E0","-3.550445132E0","-2.860731839E0","-1.584545448E0","4.827031341E0"
"2.914018583E0","-4.281476896E0","-2.921425061E0","-1.620406714E-1","5.185752210E0"
"2.924037583E0","-4.559670460E0","-3.352801641E0","7.776644790E-1","5.712848291E0"
"2.934057583E0","-4.756824539E0","-3.840040766E0","1.529890354E0","6.301893150E0"
"2.944077583E0","-5.202116323E0","-4.130371688E0","1.782497087E0","6.877447229E0"
"2.954097583E0","-5.337795115E0","-4.224225346E0","1.702071851E0","7.016636306E0"
"2.964117583E0","-5.007808084E0","-4.271990374E0","1.642591635E0","6.784257575E0"
"2.974136583E0","-4.521555385E0","-4.282227387E0","1.653890795E0","6.443391130E0"
"2.984156583E0","-4.251757838E0","-4.413032232E0","1.735864373E0","6.369106948E0"
"2.994176583E0","-4.293052629E0","-4.504828255E0","1.750154968E0","6.464272650E0"
"3.004196583E0","-4.353223402E0","-4.491707103E0","1.941876983E0","6.549570437E0"
"3.014216583E0","-3.820015807E0","-4.341004768E0","2.639161250E0","6.356257960E0"
"3.024235583E0","-4.586431412E0","-5.225753692E0","2.688811420E0","7.454767710E0"
"3.034255583E0","-6.075104451E0","-6.378611780E0","2.714873630E0","9.217598448E0"
"3.044275583E0","-6.497037778E0","-7.053570501E0","2.485306388E0","9.906619229E0"
"3.054295583E0","-6.458463696E0","-6.925745689E0","2.275504782E0","9.739385437E0"
"3.064315583E0","-6.590968620E0","-6.585735362E0","2.525246379E0","9.653478486E0"
"3.074334583E0","-7.208550367E0","-6.390885086E0","2.945641597E0","1.007389771E1"
"3.084354583E0","-7.558764086E0","-6.217197638E0","3.035725555E0","1.024715037E1"
"3.094374583E0","-6.866146774E0","-5.979749812E0","2.976997583E0","9.579347261E0"
"3.104394583E0","-5.331301197E0","-5.529014270E0","3.149201007E0","8.301219081E0"
"3.114414583E0","-3.950957769E0","-4.956201144E0","3.445572688E0","7.214289169E0"
"3.124433583E0","-3.136120786E0","-4.454515303E0","3.535016961E0","6.494174704E0"
"3.134453583E0","-2.936612034E0","-3.834052632E0","3.280603438E0","5.838322426E0"
"3.144473583E0","-3.407848499E0","-3.065362460E0","2.672114111E0","5.305664164E0"
"3.154493583E0","-4.198151150E0","-2.333336230E0","1.846298103E0","5.145653285E0"
"3.164513583E0","-5.214812382E0","-1.462134573E0","9.535382009E-1","5.499212743E0"
"3.174532583E0","-5.754526175E0","-4.651003238E-1","1.741999564E-1","5.775918579E0"
"3.184552583E0","-5.214063354E0","4.073310757E-1","-3.926112950E-1","5.244665756E0"
"3.194572583E0","-4.559765185E0","1.143720352E0","-8.768966988E-1","4.782102321E0"
"3.204592583E0","-4.722268079E0","1.727550363E0","-1.057107885E0","5.138260712E0"
"3.214612583E0","-5.541696296E0","1.802316370E0","-3.031316462E-1","5.835291846E0"
"3.224631583E0","-5.544644462E0","2.096845301E0","2.110435545E-1","5.931642421E0"
"3.234651583E0","-5.326189561E0","1.908197898E0","9.635828403E-1","5.739164256E0"
"3.244671583E0","-5.171231915E0","1.219288013E0","1.921281627E0","5.649745646E0"
"3.254691583E0","-4.962663487E0","1.082172121E0","2.060440682E0","5.481290102E0"
"3.264711583E0","-4.677555590E0","1.750195898E0","1.723815308E0","5.283393909E0"
"3.274730583E0","-3.396024844E0","2.595277312E0","1.239363843E0","4.450221545E0"
"3.284750583E0","-1.895461493E0","3.342449146E0","1.380916455E0","4.083095740E0"
"3.294770583E0","-3.794211459E-1","3.741180722E0","1.228955214E0","3.956099659E0"
"3.304790583E0","1.012098650E0","4.011187599E0","4.076079413E-1","4.156935634E0"
"3.314809583E0","1.644344046E0","4.124192350E0","-2.348057619E-1","4.446117815E0"
"3.324829583E0","1.730068905E0","4.055368868E0","-1.480517927E-1","4.411470775E0"
"3.334849583E0","1.246472595E0","3.916969366E0","5.625188103E-1","4.148827589E0"
"3.344869583E0","5.250571615E-1","4.014788606E0","1.361652803E0","4.271804178E0"
"3.354889583E0","-3.168109149E-1","4.221179239E0","2.067627495E0","4.711030331E0"
"3.364908583E0","-9.806511551E-1","4.333085299E0","2.776885983E0","5.239122126E0"
"3.374928583E0","-1.374383946E0","4.205025721E0","3.151341673E0","5.431586038E0"
"3.384948583E0","-1.571453240E0","4.155374382E0","3.220175973E0","5.486905761E0"
"3.394968583E0","-8.263969284E-1","4.202982412E0","3.051277102E0","5.259114468E0"
"3.404988583E0","4.935669816E-1","4.150665619E0","3.075511765E0","5.189451422E0"
"3.415007583E0","9.750553697E-1","3.923172677E0","3.441301297E0","5.308914338E0"
"3.425027583E0","2.528106253E0","3.710441324E0","3.412927390E0","5.639749056E0"
"3.435047583E0","3.933542422E0","3.093654213E0","2.756743494E0","5.713412909E0"
"3.445065083E0","3.600556939E0","1.958485122E0","1.992507585E0","4.557385294E0"
"3.455085083E0","2.957908178E0","5.639469928E-1","1.091954513E0","3.203064417E0"
"3.465104083E0","3.330578713E0","-1.029090367E0","3.819108903E-1","3.506798751E0"
"3.475124083E0","6.270721296E0","-3.020221370E0","1.356540875E-1","6.961471449E0"
"3.485144083E0","1.187483779E1","-4.461382566E0","2.952573471E-1","1.268869118E1"
"3.495164083E0","1.959905527E1","-4.155445133E0","5.986974339E-1","2.004368056E1"
"3.505184083E0","2.773906943E1","-3.012716469E0","8.047164761E-2","2.790231011E1"
"3.515203083E0","3.501642750E1","-3.031477553E0","-1.502874756E0","3.517952079E1"
"3.525223083E0","3.983922266E1","-3.879582269E0","-3.499854437E0","4.018039076E1"
"3.535243083E0","4.101533629E1","-5.378756030E0","-5.756767412E0","4.176516729E1"
"3.545263083E0","3.962711374E1","-8.380632346E0","-6.747298608E0","4.106177274E1"
"3.555283083E0","3.640030206E1","-1.221481479E1","-4.446418079E0","3.865170532E1"
"3.565302083E0","3.206564415E1","-1.431687946E1","7.700841486E-1","3.512508508E1"
"3.575322083E0","2.808807336E1","-1.492928993E1","3.551611651E0","3.200683534E1"
"3.585342083E0","2.398350105E1","-1.423558211E1","3.175606449E0","2.807035085E1"
"3.595362083E0","1.912695810E1","-1.301623066E1","1.315160422E0","2.317309719E1"
"3.605382083E0","1.418747356E1","-1.136426009E1","-9.237454677E-1","1.820121202E1"
"3.615401083E0","9.510481641E0","-9.302366372E0","-2.636691678E0","1.356227946E1"
"3.625421083E0","5.276276559E0","-6.973054926E0","-3.316912601E0","9.352245641E0"
"3.635441083E0","1.607186744E0","-4.677584534E0","-3.005005746E0","5.787305577E0"
"3.645461083E0","-1.509884398E0","-2.861657453E0","-1.857190297E0","3.730682253E0"
"3.655481083E0","-4.012136602E0","-1.741430337E0","-2.074624273E-1","4.378682495E0"
"3.665500083E0","-6.125081187E0","-1.508014166E0","1.257572511E0","6.432123669E0"
"3.675520083E0","-7.506098215E0","-1.546508726E0","2.247349562E0","7.986474798E0"
"3.685540083E0","-8.491178636E0","-1.774413311E0","2.894714102E0","9.144836082E0"
"3.695560083E0","-9.522704076E0","-2.077233593E0","3.481921027E0","1.034990659E1"
"3.705579083E0","-1.035712397E1","-2.174546903E0","4.080950436E0","1.134252298E1"
"3.715599083E0","-1.069143969E1","-2.121106714E0","4.418289464E0","1.176126091E1"
"3.725619083E0","-1.075739629E1","-2.028431562E0","4.460100564E0","1.182068553E1"
"3.735639083E0","-1.061690173E1","-1.963884441E0","4.364586296E0","1.164581719E1"
"3.745659083E0","-1.034361222E1","-1.842703528E0","4.152282082E0","1.129722606E1"
"3.755678083E0","-1.013552619E1","-1.595059911E0","3.778499698E0","1.093389991E1"
"3.765698083E0","-1.009178668E1","-1.228668555E0","3.502240978E0","1.075264975E1"
"3.775718083E0","-1.004638188E1","-9.015699023E-1","3.366239128E0","1.063363452E1"
"3.785738083E0","-9.994489009E0","-7.433936557E-1","3.399967914E0","1.058311044E1"
"3.795758083E0","-9.966652755E0","-8.103651787E-1","3.491278618E0","1.059150061E1"
"3.805777083E0","-9.840463994E0","-1.076886823E0","3.506343677E0","1.050185045E1"
"3.815797083E0","-1.005649522E1","-1.546020337E0","3.300390708E0","1.069653467E1"
"3.825817083E0","-1.041113821E1","-2.137088616E0","3.046931744E0","1.105634386E1"
"3.835837083E0","-1.078558337E1","-2.805837886E0","2.704270289E0","1.146798207E1"
"3.845856083E0","-1.175386357E1","-3.409708790E0","2.193535882E0","1.243346382E1"
"3.855876083E0","-1.325302418E1","-3.865901247E0","1.556596927E0","1.389283399E1"
"3.865896083E0","-1.485375443E1","-4.337937318E0","9.091145647E-1","1.550090998E1"
"3.875916083E0","-1.628628484E1","-4.798578336E0","4.510695644E-1","1.698448974E1"
"3.885936083E0","-1.764010939E1","-5.175323212E0","3.475327706E-1","1.838690318E1"
"3.895955083E0","-1.861890522E1","-5.384712589E0","6.852786179E-1","1.939402919E1"
"3.905975083E0","-1.895088674E1","-5.473923558E0","1.270451442E0","1.976648664E1"
"3.915995083E0","-1.869226439E1","-5.459889071E0","1.755431203E0","1.955230614E1"
"3.926015083E0","-1.786925943E1","-5.349485453E0","2.015940740E0","1.876143503E1"
"3.936035083E0","-1.685355597E1","-5.291297472E0","2.109381877E0","1.779015654E1"
"3.946054083E0","-1.622402603E1","-5.203748866E0","1.889962771E0","1.714263638E1"
"3.956074083E0","-1.546207302E1","-4.861000872E0","1.348673154E0","1.626419229E1"
"3.966094083E0","-1.422874087E1","-4.416248785E0","6.641475114E-1","1.491312885E1"
"3.976114083E0","-1.303980663E1","-3.774907169E0","5.949044913E-2","1.357534604E1"
"3.986134083E0","-1.176177953E1","-3.057571922E0","-3.087411726E-1","1.215662474E1"
"3.996153083E0","-9.300639104E0","-2.417687432E0","-6.833164385E-1","9.634003406E0"
"4.006173083E0","-6.470913588E0","-1.633186681E0","-1.395700994E0","6.818211104E0"
"4.016193083E0","-3.850757543E0","-5.035288829E-1","-2.580445265E0","4.662678710E0"
"4.026213083E0","-1.334890097E0","8.601701537E-1","-4.129693118E0","4.424498787E0"
"4.036232083E0","5.894841224E-1","2.323399326E0","-5.636511236E0","6.125025296E0"
"4.046252083E0","1.893731301E0","3.234635845E0","-6.457602986E0","7.466573754E0"
"4.056272083E0","3.459747800E0","3.153142323E0","-6.171239108E0","7.745731307E0"
"4.066292083E0","4.678118092E0","2.568871871E0","-2.671345494E0","5.968247509E0"
"4.076312083E0","4.819428338E0","2.307227389E0","2.714717509E0","5.993319521E0"
"4.086331083E0","4.227132289E0","3.074610416E0","6.324923231E0","8.205274553E0"
"4.096351083E0","5.440131329E0","5.020886552E0","7.625598346E0","1.062798573E1"
"4.106371083E0","1.006317976E1","6.817880348E0","8.808401780E0","1.501129645E1"
"4.116391083E0","1.448634814E1","7.065771886E0","1.136125930E1","1.971947331E1"
"4.126411083E0","1.554393404E1","5.626763343E0","1.360649772E1","2.141053785E1"
"4.136430083E0","1.440735343E1","3.262743118E0","1.407998302E1","2.040743118E1"
"4.146450083E0","1.321278013E1","5.059949461E-1","1.452026199E1","1.963852332E1"
"4.156470083E0","1.145622042E1","-2.093408015E0","1.733766099E1","2.088592426E1"
"4.166490083E0","9.440757687E0","-4.424017396E0","1.972522182E1","2.231107822E1"
"4.176509083E0","7.614623122E0","-5.806955234E0","1.973301966E1","2.193388427E1"
"4.186529083E0","5.374831379E0","-5.786450803E0","1.833613271E1","1.996460838E1"
"4.196549083E0","3.469964933E0","-4.937385389E0","1.518178556E1","1.633722877E1"
"4.206569083E0","2.226509793E0","-3.981909128E0","1.027289366E1","1.124034209E1"
"4.216589083E0","1.714200439E0","-2.814388270E0","5.009255270E0","5.995990564E0"
"4.226608083E0","1.775062937E0","-1.492440546E0","3.537395900E-1","2.345923893E0"
"4.236628083E0","1.996748716E0","-9.872365817E-2","-3.375710447E0","3.923285972E0"
"4.246648083E0","2.165203198E0","1.097010600E0","-5.806697956E0","6.293590256E0"
"4.256668083E0","2.253914523E0","1.768020112E0","-6.808048840E0","7.386173217E0"
"4.266688083E0","1.991148253E0","1.883304839E0","-6.387743962E0","6.950883498E0"
"4.276707083E0","1.548523676E0","1.500639804E0","-5.417717782E0","5.831081492E0"
"4.286727083E0","1.221515802E0","9.271709128E-1","-4.467018405E0","4.722922843E0"
"4.296747083E0","8.962875277E-1","4.421527067E-1","-3.714352527E0","3.846458766E0"
"4.306767083E0","3.366569495E-1","-4.300188571E-3","-3.134867143E0","3.152895241E0"
"4.316786083E0","-3.177809680E-1","-3.385542248E-1","-2.798004956E0","2.836271398E0"
"4.326806083E0","-9.557019630E-1","-4.817873271E-1","-2.937432983E0","3.126339361E0"
"4.336826083E0","-1.194313385E0","-3.613054486E-1","-3.099572180E0","3.341298219E0"
"4.346846083E0","-9.516571516E-1","-1.961799324E-2","-3.191551221E0","3.330470747E0"
"4.356866083E0","-3.818395543E-1","4.719904634E-1","-3.179354514E0","3.236799587E0"
"4.366885083E0","2.811943549E-1","8.196807434E-1","-3.080880970E0","3.200433461E0"
"4.376905083E0","4.077706401E-1","1.006942649E0","-2.901373789E0","3.098093003E0"
"4.386925083E0","-1.177839732E-1","9.998795776E-1","-2.626362864E0","2.812723614E0"
"4.396945083E0","-4.985289288E-1","6.231441309E-1","-2.317242208E0","2.450806224E0"
"4.406964083E0","-5.934513120E-1","1.309997039E-1","-1.999234368E0","2.089565371E0"
"4.416984083E0","-6.897474986E-1","-1.882112738E-1","-1.441613477E0","1.609168889E0"
"4.427004083E0","-4.957441923E-1","-1.505856105E-1","-8.051639342E-1","9.574587674E-1"
"4.437024083E0","3.913095586E-1","2.150885122E-1","-4.430154634E-1","6.290063112E-1"
"4.447043958E0","1.203468517E0","8.050749835E-1","-1.935293895E-1","1.460799721E0"
"4.457062958E0","1.615612290E0","1.253238993E0","-2.261416501E-1","2.057170652E0"
"4.467082958E0","1.827082837E0","1.548083235E0","-6.636548835E-1","2.485001247E0"
"4.477102958E0","1.468121683E0","1.694318151E0","-1.292991289E0","2.588034341E0"
"4.487122958E0","7.489802317E-1","1.464223783E0","-1.872588939E0","2.492290515E0"
"4.497142958E0","1.570198135E-1","1.053384451E0","-1.746916487E0","2.045969510E0"
"4.507161958E0","5.206989393E-2","6.846290653E-1","-1.235166419E0","1.413175259E0"
"4.517181958E0","-3.506969914E-2","3.968463602E-1","-8.541530764E-1","9.424937110E-1"
"4.527201958E0","-2.028792335E-1","1.116903705E-1","-5.501510721E-1","5.969094776E-1"
"4.537221958E0","-1.943639334E-1","-2.579491145E-1","-5.528980941E-1","6.403213152E-1"
"4.547240958E0","1.282290007E-1","-3.687738048E-1","-8.301180965E-1","9.173509960E-1"
"4.557260958E0","3.563663055E-1","-2.486093570E-1","-1.257261878E0","1.330229674E0"
"4.567280958E0","5.433371656E-1","-3.198367028E-1","-1.953320861E0","2.052552844E0"
"4.577300958E0","5.818711938E-1","-4.195664475E-1","-2.647612231E0","2.743075029E0"
"4.587320958E0","4.423617446E-1","-3.657619040E-1","-3.246011018E0","3.296369702E0"
"4.597339958E0","5.561184481E-2","-1.643235706E-1","-3.592776634E0","3.596962448E0"
"4.607359958E0","-7.584221694E-1","-3.754855312E-2","-4.099388169E0","4.169124302E0"
"4.617379958E0","-1.224677391E0","-5.511258761E-1","-4.582250653E0","4.774996910E0"
"4.627399958E0","-2.182977565E0","-1.416328363E0","-5.122094838E0","5.745192130E0"
"4.637418958E0","-3.486158212E0","-2.171440716E0","-5.868577285E0","7.163005878E0"
"4.647438958E0","-4.584969023E0","-2.440793728E0","-6.752966314E0","8.519505209E0"
"4.657458958E0","-5.098214225E0","-2.569704222E0","-7.122821415E0","9.128513186E0"
"4.667478958E0","-5.762914590E0","-3.023955402E0","-6.980341727E0","9.543618887E0"
"4.677498958E0","-7.515185958E0","-3.715905840E0","-6.680810503E0","1.072003755E1"
"4.687517958E0","-8.698057804E0","-4.428450170E0","-6.604398504E0","1.178496755E1"
"4.697537958E0","-9.187396079E0","-5.202029200E0","-6.963753176E0","1.264765642E1"
"4.707557958E0","-9.513946701E0","-5.440120220E0","-7.102612853E0","1.305975494E1"
"4.717577958E0","-9.704316255E0","-5.286512110E0","-6.585203265E0","1.286413100E1"
"4.727597958E0","-9.817628278E0","-5.372015945E0","-5.662831308E0","1.254240961E1"
"4.737616958E0","-9.876320289E0","-5.664742763E0","-4.529271371E0","1.225337962E1"
"4.747636958E0","-9.952695451E0","-5.810201608E0","-2.911047422E0","1.188649597E1"
"4.757656958E0","-9.728179911E0","-5.807525922E0","-1.292890717E0","1.140335074E1"
"4.767676958E0","-9.252396652E0","-5.526087738E0","1.320839238E-1","1.077784467E1"
"4.777695958E0","-9.063190109E0","-5.128639627E0","1.971608759E0","1.059866031E1"
"4.787715958E0","-8.544083658E0","-4.695490755E0","3.315112828E0","1.029752262E1"
"4.797735958E0","-6.153435506E0","-4.287900063E0","2.732394811E0","7.982282686E0"
"4.807755958E0","-3.603025634E0","-3.629153624E0","6.876802155E-1","5.159985836E0"
"4.817774958E0","-6.347257841E-1","-3.174006066E0","-1.627238016E0","3.622857282E0"
"4.827794958E0","1.148641661E0","-3.722213523E0","-4.177667184E0","5.712018407E0"
"4.837814958E0","1.186179031E0","-5.326951454E0","-6.461645751E0","8.457913353E0"
"4.847834958E0","4.409581790E0","-6.556482326E0","-6.953778995E0","1.052553630E1"
"4.857854958E0","1.499470507E1","-7.688053626E0","-3.954383068E0","1.730850930E1"
"4.867873958E0","3.303914942E1","-5.926021501E0","9.585539424E-1","3.358008265E1"
"4.877893958E0","5.520232804E1","-1.162257341E0","4.817364271E0","5.542431652E1"
"4.887913958E0","7.378810061E1","3.757466094E0","7.775441433E0","7.429172115E1"
"4.897933958E0","7.910748576E1","7.696515132E0","9.023667608E0","7.999160722E1"
"4.907953958E0","7.030656549E1","8.162479747E0","7.322050670E0","7.115652924E1"
"4.917972958E0","5.403221599E1","4.663934794E0","3.949650332E0","5.437676333E1"
"4.927992958E0","3.804122256E1","1.741024248E0","7.891308689E-1","3.808921772E1"
"4.938012958E0","2.714204065E1","9.757682184E-1","4.780075407E-1","2.716378076E1"
"4.948032958E0","2.034290764E1","7.241459374E-1","1.921114397E0","2.044624560E1"
"4.958051958E0","1.391726437E1","3.902504086E-1","2.305239043E0","1.411228791E1"
"4.968071958E0","7.635586560E0","5.554840617E-1","1.575057464E0","7.816108409E0"
"4.978091958E0","2.946903718E0","8.283268750E-1","6.979118928E-1","3.139657298E0"
"4.988111958E0","-8.404939806E-1","1.052245706E0","2.179721396E-2","1.346895050E0"
"4.998131958E0","-3.920023659E0","7.358104748E-1","-3.640137327E-1","4.005060367E0"
"5.008150958E0","-6.316746485E0","1.393274546E-1","-1.729991941E-1","6.320650838E0"
"5.018170958E0","-8.538803623E0","-4.301624063E-1","7.606397259E-1","8.583401412E0"
"5.028190958E0","-1.034977870E1","-1.279150052E0","1.825740463E0","1.058713711E1"
"5.038210958E0","-1.174744684E1","-2.119339978E0","2.668730035E0","1.223177130E1"
"5.048229958E0","-1.269688965E1","-2.363295024E0","3.466829363E0","1.337217544E1"
"5.058249958E0","-1.293682430E1","-2.380391259E0","3.748606685E0","1.367770951E1"
"5.068269958E0","-1.294457888E1","-2.391040501E0","3.570425652E0","1.363917652E1"
"5.078289958E0","-1.298455395E1","-2.274507101E0","3.215365176E0","1.356873602E1"
"5.088308958E0","-1.270318125E1","-2.097947939E0","3.045193659E0","1.323047255E1"
"5.098328958E0","-1.218051268E1","-1.974266172E0","2.657690492E0","1.262243775E1"
"5.108348958E0","-1.224220782E1","-2.301443908E0","2.123879464E0","1.263642198E1"
"5.118368958E0","-1.269588393E1","-2.772320769E0","1.365736353E0","1.306661651E1"
"5.128388958E0","-1.338929822E1","-3.394675599E0","4.489455633E-1","1.382022725E1"
"5.138407958E0","-1.455224977E1","-4.152258985E0","-5.282364388E-1","1.514226739E1"
"5.148427958E0","-1.644158923E1","-4.701565720E0","-1.603271595E0","1.717559479E1"
"5.158447958E0","-1.859873233E1","-4.727299900E0","-2.500303327E0","1.935230543E1"
"5.168467958E0","-2.041683984E1","-4.716608559E0","-2.286030794E0","2.107889186E1"
"5.178486958E0","-2.095696118E1","-4.693959369E0","-1.022529352E0","2.150053587E1"
"5.188506958E0","-2.081133511E1","-4.680084803E0","4.686718762E-1","2.133622544E1"
"5.198526958E0","-2.074826938E1","-4.883777823E0","1.608449889E0","2.137589949E1"
"5.208546958E0","-2.084176636E1","-5.354038095E0","2.425289690E0","2.165472186E1"
"5.218566958E0","-2.107499074E1","-5.341161357E0","2.596076041E0","2.189572675E1"
"5.228585958E0","-2.050743894E1","-4.554776048E0","1.714435204E0","2.107700939E1"
"5.238605958E0","-1.885841186E1","-3.972130245E0","3.059812868E-1","1.927462428E1"
"5.248625958E0","-1.615089958E1","-2.856539678E0","-1.132074745E0","1.644058908E1"
"5.258645958E0","-1.283632703E1","-1.302583939E0","-1.830103655E0","1.303139655E1"
"5.268664958E0","-9.757751035E0","-2.194916117E-1","-1.532820686E0","9.879849244E0"
"5.278684958E0","-7.423651305E0","1.796365513E-1","-7.181363153E-1","7.460468333E0"
"5.288704958E0","-6.640470563E0","3.836991151E-1","2.868421622E-1","6.657728797E0"
"5.298724958E0","-7.014186580E0","4.436960793E-1","7.461169964E-1","7.067699071E0"
"5.308744958E0","-6.471114147E0","-6.809667349E-2","2.724603689E-1","6.477205425E0"
"5.318763958E0","-5.752190212E0","-7.090918422E-3","-1.091684518E0","5.854871271E0"
"5.328783958E0","-3.994859834E0","1.552490427E0","-3.345974432E0","5.437340942E0"
"5.338803958E0","-1.543252704E0","3.127106134E0","-5.584494406E0","6.583843820E0"
"5.348823958E0","1.164558367E0","4.058097471E0","-6.184143913E0","7.487855982E0"
"5.358842958E0","3.712618243E0","4.499851398E0","-3.853372710E0","6.991471809E0"
"5.368862958E0","4.813096388E0","3.614754271E0","1.298541466E0","6.157804416E0"
"5.378882958E0","4.596776306E0","1.996374787E0","7.176963708E0","8.753552009E0"
"5.388902958E0","5.848791477E0","1.047716380E0","1.159219625E1","1.302632278E1"
"5.398921958E0","9.941784546E0","1.568469113E0","1.458481291E1","1.772049500E1"
"5.408941958E0","1.586732716E1","3.598684076E0","1.650271134E1","2.317459989E1"
"5.418961958E0","2.063667176E1","5.538331808E0","1.794512940E1","2.790292116E1"
"5.428981958E0","2.295883264E1","5.933641008E0","1.937146761E1","3.061976240E1"
"5.439001083E0","2.290390390E1","4.112397639E0","2.013957891E1","3.077504292E1"
"5.449020083E0","2.086193457E1","6.004251400E-1","2.041048742E1","2.919193076E1"
"5.459040083E0","1.773834495E1","-2.186820793E0","1.976205693E1","2.664526151E1"
"5.469060083E0","1.463696072E1","-3.337661446E0","1.792091958E1","2.337819415E1"
"5.479080083E0","1.216844871E1","-3.533358398E0","1.460703116E1","1.933704023E1"
"5.489099083E0","9.736793445E0","-3.369498658E0","1.115677281E1","1.518658116E1"
"5.499119083E0","7.552782969E0","-3.176031541E0","8.136408182E0","1.154698424E1"
"5.509139083E0","5.426616660E0","-3.009351689E0","4.718136436E0","7.795202203E0"
"5.519159083E0","3.106549955E0","-2.825537156E0","8.593196762E-1","4.286343797E0"
"5.529178083E0","1.420608232E0","-2.476317756E0","-2.601895190E0","3.862659182E0"
"5.539198083E0","4.841909713E-1","-2.598285704E0","-4.781365303E0","5.463239301E0"
"5.549218083E0","-4.807875994E-1","-2.439951290E0","-5.903307992E0","6.405744630E0"
"5.559238083E0","-1.841784638E0","-1.375173613E0","-7.033830886E0","7.399868245E0"
"5.569258083E0","-2.147452221E0","-1.052888827E0","-7.993643734E0","8.343768098E0"
"5.579277083E0","-1.805400046E0","-1.290817879E0","-8.546759344E0","8.830219443E0"
"5.589297083E0","-1.360008274E0","-1.117844376E0","-8.588539454E0","8.767109473E0"
"5.599317083E0","-6.939645106E-1","-9.234604159E-1","-8.167339953E0","8.248624599E0"
"5.609337083E0","-3.583875418E-1","-1.034638497E0","-7.684369880E0","7.761988077E0"
"5.619356083E0","-9.217340255E-1","-1.535249035E0","-7.266354772E0","7.483748719E0"
"5.629376083E0","-2.084568048E0","-1.866371887E0","-6.700971118E0","7.261665229E0"
"5.639396083E0","-2.523722303E0","-1.729237723E0","-6.668885692E0","7.337129802E0"
"5.649416083E0","-2.084321003E0","-1.418862254E0","-6.943110166E0","7.386768096E0"
"5.659435083E0","-1.330002702E0","-9.858247715E-1","-6.746815628E0","6.946961838E0"
"5.669455083E0","-5.488699472E-1","-6.196680343E-1","-6.526904186E0","6.579188776E0"
"5.679475083E0","1.609826177E-1","-3.044583794E-1","-6.088653619E0","6.098386114E0"
"5.689495083E0","2.118165565E-1","5.226475239E-2","-5.363307102E0","5.367742628E0"
"5.699515083E0","2.273172328E-1","2.417741811E-1","-4.572910311E0","4.584935832E0"
"5.709534083E0","1.788598949E-1","4.084277210E-1","-3.666149250E0","3.693163196E0"
"5.719554083E0","4.597338223E-1","1.044118880E0","-2.520798402E0","2.766941273E0"
"5.729574083E0","9.056076971E-1","7.053431922E-1","-1.024230453E0","1.538402529E0"
"5.739594083E0","8.337813771E-1","1.853453341E-1","2.856166041E-1","9.006226303E-1"
"5.749613083E0","8.129752296E-1","2.761376828E-2","1.089577181E0","1.359731473E0"
"5.759633083E0","7.835283592E-1","-4.259182048E-1","1.823487530E0","2.029884179E0"
"5.769653083E0","1.423037458E0","-9.852075979E-1","2.760978048E0","3.258629988E0"
"5.779673083E0","2.146998039E0","-1.566908199E0","3.440590568E0","4.347696555E0"
"5.789692083E0","2.822094900E0","-2.176484232E0","3.881977581E0","5.269824777E0"
"5.799712083E0","2.548611268E0","-4.397380990E-1","2.958961846E0","3.929916564E0"
"5.809732083E0","8.692100953E-1","5.375111461E-1","1.310850440E0","1.662159227E0"
"5.819752083E0","5.879503977E-1","-2.433467898E-1","1.340075993E0","1.483478007E0"
"5.829772083E0","1.470829968E0","-7.728365792E-1","1.389152843E0","2.165724542E0"
"5.839791083E0","1.380687537E0","-5.622758585E-1","1.049402132E0","1.823100944E0"
"5.849811083E0","6.237355037E-1","-4.966198128E-1","2.506677961E-1","8.357700408E-1"
"5.859831083E0","2.418744609E-1","-6.692489147E-1","-4.953620768E-1","8.670530271E-1"
"5.869851083E0","9.144489795E-2","-9.090009825E-1","-9.336173218E-1","1.306248927E0"
"5.879870083E0","-1.756649762E-3","-7.550493492E-1","-1.302564350E0","1.505581779E0"
"5.889890083E0","-1.333426101E-1","-2.794046684E-1","-2.362932935E0","2.383128045E0"
"5.899910083E0","-5.414549468E-1","2.369226001E-1","-3.658421570E0","3.705854040E0"
"5.909930083E0","-8.399444155E-1","7.233982247E-1","-4.659388876E0","4.789437995E0"
"5.919949083E0","-7.737683330E-1","1.160142111E0","-5.321856190E0","5.501527102E0"
"5.929969083E0","-4.680360646E-1","8.801062354E-1","-5.980179582E0","6.062688560E0"
"5.939989083E0","-3.588659902E-1","-6.976678446E-2","-6.247771559E0","6.258458409E0"
"5.950009083E0","-1.379706959E0","-3.826165031E-1","-6.057124262E0","6.224045390E0"
"5.960029083E0","-1.995076413E0","1.892974672E-1","-5.586881824E0","5.935436963E0"
"5.970048083E0","-1.611471876E0","5.429823858E-1","-4.779032264E0","5.072555653E0"
"5.980068083E0","-1.011088398E0","6.905996572E-1","-3.750319335E0","3.945139129E0"
"5.990088083E0","-3.054626387E-1","8.557392798E-1","-2.642899960E0","2.794730280E0"
"6.000108083E0","4.385473866E-1","8.516942491E-1","-1.638870467E0","1.898315915E0"
"6.010127083E0","6.145790564E-1","8.407454109E-1","-1.439554673E0","1.776760512E0"
"6.020147083E0","1.784875003E-1","1.041707708E0","-2.254385809E0","2.489832948E0"
"6.030167083E0","-3.993147623E-1","1.368924547E0","-3.249086069E0","3.548234346E0"
"6.040187083E0","-1.164659012E0","1.493088710E0","-4.436687728E0","4.823892878E0"
"6.050206083E0","-1.601159434E0","1.386179827E0","-4.976284575E0","5.408198796E0"
"6.060226083E0","-1.332614069E0","1.118212020E0","-3.648613451E0","4.042108174E0"
"6.070246083E0","-7.696440726E-1","5.582632068E-1","-1.149221705E0","1.491549641E0"
"6.080266083E0","-1.004379887E-1","4.093641526E-1","1.533444584E0","1.590320437E0"
"6.090285083E0","5.758387676E-1","9.399312915E-1","3.379583643E0","3.554806144E0"
"6.100305083E0","1.774489764E0","1.783694743E0","4.547859669E0","5.197442489E0"
"6.110325083E0","2.434984666E0","2.274719063E0","5.976025136E0","6.842249159E0"
"6.120345083E0","2.144919792E0","2.363348965E0","7.522939366E0","8.171946888E0"
"6.130365083E0","1.235395776E0","2.216252461E0","1.025584435E1","1.056505187E1"
"6.140384083E0","1.007091022E0","9.786215866E-1","1.437578899E1","1.444421135E1"
"6.150404083E0","1.677609586E0","-3.721926717E-1","1.964028750E1","1.971531877E1"
"6.160424083E0","3.266593802E0","-6.499763457E-1","2.527306237E1","2.549158264E1"
"6.170444083E0","5.188894014E0","-7.648611233E-1","2.866758857E1","2.914344297E1"
"6.180463083E0","6.251084007E0","-8.054919630E-1","2.849170432E1","2.918050863E1"
"6.190483083E0","6.414849899E0","-9.204890071E-1","2.578842660E1","2.659023403E1"
"6.200503083E0","5.791287619E0","-9.756364368E-1","2.142057522E1","2.221107655E1"
"6.210523083E0","4.391701005E0","-6.211434330E-1","1.635634501E1","1.694706107E1"
"6.220542083E0","2.609466165E0","-2.469420965E-1","1.133109000E1","1.163030071E1"
"6.230562083E0","5.111043893E-1","-4.486729369E-2","7.124241704E0","7.142692813E0"
"6.240582083E0","-1.160232231E0","-1.516925615E-1","3.907352158E0","4.078792757E0"
"6.250602083E0","-1.255916433E0","-7.035209075E-2","1.583629482E0","2.022413865E0"
"6.260621083E0","-5.764046319E-1","-5.713314414E-2","1.494928390E-1","5.982094990E-1"
"6.270641083E0","-5.252979206E-1","-3.260391368E-1","-6.642454523E-1","9.074477643E-1"
"6.280661083E0","-1.131879886E0","-5.921688715E-1","-1.085558390E0","1.676380943E0"
"6.290681083E0","-1.152849756E0","-5.478810368E-1","-2.070114900E0","2.431997510E0"
"6.300700083E0","-4.112476869E-1","-3.366771224E-1","-3.621303445E0","3.660097647E0"
"6.310720083E0","3.962114257E-1","2.436324263E-1","-5.316454532E0","5.336762038E0"
"6.320740083E0","4.186911924E-1","5.316428804E-1","-6.520616090E0","6.555637319E0"
"6.330760083E0","-5.343780617E-1","-1.051329374E-3","-7.638758674E0","7.657427447E0"
"6.340780083E0","-1.836310182E0","-4.055362728E-1","-8.714993094E0","8.915581831E0"
"6.350799083E0","-2.991342849E0","-8.913004375E-1","-9.286428616E0","9.796953861E0"
"6.360819083E0","-4.147786158E0","-1.794132754E0","-9.385062373E0","1.041645036E1"
"6.370839083E0","-5.158762143E0","-2.567270903E0","-9.326235291E0","1.096277207E1"
"6.380859083E0","-5.259741803E0","-2.944717737E0","-9.034042323E0","1.086048650E1"
"6.390878083E0","-4.481954825E0","-2.568755803E0","-8.792828305E0","1.019805153E1"
"6.400898083E0","-3.247383360E0","-1.610402420E0","-9.157380567E0","9.848680799E0"
"6.410918083E0","-1.871682328E0","-6.123144297E-1","-1.039668155E1","1.058154578E1"
"6.420938083E0","-5.711055927E-1","4.596393898E-1","-1.208787524E1","1.211008497E1"
"6.430957083E0","3.359260476E-1","1.385284472E0","-1.349355407E1","1.356863519E1"
"6.440977083E0","7.306546193E-1","1.789024187E0","-1.445787922E1","1.458645725E1"
"6.450997083E0","6.314194760E-1","1.583728884E0","-1.493531373E1","1.503231466E1"
"6.461017083E0","1.211259493E-1","1.016037481E0","-1.495444231E1","1.498940788E1"
"6.471036083E0","-1.084047762E0","1.733339837E-1","-1.432067781E1","1.436269533E1"
"6.481056083E0","-2.678679657E0","-8.466623546E-1","-1.319346444E1","1.348924259E1"
"6.491076083E0","-4.054620424E0","-1.904899337E0","-1.217510284E1","1.297311518E1"
"6.501096083E0","-4.728130497E0","-2.650687281E0","-1.141743701E1","1.263879855E1"
"6.511115083E0","-4.513404659E0","-2.784185354E0","-1.079451792E1","1.202680867E1"
"6.521135083E0","-4.006687582E0","-2.672580134E0","-1.049263436E1","1.154519839E1"
"6.531155083E0","-3.392417697E0","-2.587228619E0","-1.084238206E1","1.165158781E1"
"6.541175083E0","-2.822851530E0","-2.414287422E0","-1.167569566E1","1.225231176E1"
"6.551194083E0","-2.291800095E0","-1.665046697E0","-1.208452479E1","1.241210971E1"
"6.561214083E0","-2.194391622E0","-1.023091416E0","-1.157734900E1","1.182780962E1"
"6.571234083E0","-2.713610046E0","-1.087090068E0","-1.056389087E1","1.096089570E1"
"6.581254083E0","-2.618861179E0","-8.726184373E-1","-8.886866736E0","9.305713148E0"
"6.591274083E0","-1.837786604E0","-6.333896953E-1","-7.311049134E0","7.565056612E0"
"6.601293083E0","-1.094962394E0","-8.001252423E-1","-6.188104232E0","6.334964643E0"
"6.611313083E0","-7.009973954E-1","-8.672651652E-1","-5.577240350E0","5.687631857E0"
"6.621333083E0","-5.029157292E-1","-7.962665185E-1","-5.530643304E0","5.610256675E0"
"6.631353083E0","-2.282871397E-1","-5.823405790E-1","-5.320767438E0","5.357406248E0"
"6.641372083E0","-2.360987274E-1","-8.085079569E-1","-4.604043226E0","4.680453156E0"
"6.651392083E0","-9.597150533E-1","-1.804094655E0","-3.260349560E0","3.847816233E0"
"6.661412083E0","-1.963595003E0","-2.131895119E0","-1.394828736E0","3.216555508E0"
"6.671432083E0","-2.875630837E0","-2.387039836E0","1.288187801E0","3.953054477E0"
"6.681451083E0","-3.090095890E0","-3.077156879E0","4.970711010E0","6.612530152E0"
"6.691471083E0","-2.757803887E0","-2.488502769E0","9.057437033E0","9.789550241E0"
"6.701491083E0","-1.657106032E0","-8.098115936E-1","1.458985555E1","1.470597430E1"
"6.711511083E0","-5.283857255E-1","3.831304733E-1","2.244287433E1","2.245236266E1"
"6.721530083E0","7.075306356E-2","2.187083772E-1","3.059023260E1","3.059109625E1"
"6.731550083E0","4.531430601E-1","-1.189831787E0","3.612686988E1","3.614929827E1"
"6.741570083E0","6.614724103E-1","-2.714857842E0","3.767666503E1","3.778014144E1"
"6.751590083E0","1.949007078E-1","-3.321529562E0","3.615206670E1","3.630485466E1"
"6.761609083E0","3.778228826E-1","-3.200511494E0","3.310528845E1","3.326178208E1"
"6.771629083E0","7.263732880E-1","-2.654630059E0","2.748429455E1","2.762175096E1"
"6.781649083E0","5.050292784E-1","-1.584217712E0","1.907608732E1","1.914841789E1"
"6.791669083E0","8.422231485E-1","-5.631628811E-2","1.035591944E1","1.039026366E1"
"6.801688083E0","1.553214166E0","1.978460234E0","3.281004265E0","4.134219168E0"
"6.811708083E0","1.343067428E0","3.384733871E0","-4.911140746E-1","3.674431456E0"
"6.821728083E0","1.127961228E0","3.609388574E0","-3.545514759E0","5.183691476E0"
"6.831748083E0","1.237489372E0","3.386851147E0","-5.918216638E0","6.930182452E0"
"6.841767083E0","2.346159320E0","2.879263712E0","-7.153078417E0","8.059848257E0"
"6.851787083E0","3.516440064E0","2.265725899E0","-7.131315081E0","8.267679200E0"
"6.861807083E0","4.395962748E0","2.076210038E0","-6.028543072E0","7.744576694E0"
"6.871827083E0","4.623679053E0","2.287590538E0","-4.216450596E0","6.662577135E0"
"6.881846083E0","4.303317416E0","2.412831027E0","-2.619378950E0","5.585824956E0"
"6.891866083E0","3.692183978E0","2.444720280E0","-1.939896238E0","4.834467622E0"
"6.901886083E0","3.188039091E0","2.497050521E0","-2.285878912E0","4.650171712E0"
"6.911906083E0","2.734537816E0","2.319033210E0","-3.613991502E0","5.090829664E0"
"6.921926083E0","2.403242324E0","2.003981137E0","-5.343840551E0","6.192587981E0"
"6.931945083E0","2.189404239E0","1.645578100E0","-6.877101533E0","7.402428230E0"
"6.941965083E0","1.877939580E0","1.361292030E0","-7.846624852E0","8.182254862E0"
"6.951985083E0","1.561989668E0","9.916041595E-1","-8.094720458E0","8.303468542E0"
"6.962005083E0","1.310200083E0","4.553291879E-1","-7.326296334E0","7.456444655E0"
"6.972024083E0","1.077464528E0","1.696854673E-1","-5.428707624E0","5.537200505E0"
"6.982044083E0","9.947210178E-1","1.485961685E-1","-2.421057767E0","2.621654332E0"
"6.992064083E0","1.401277630E0","-2.950769605E-1","8.892141509E-1","1.685630806E0"
"7.002084083E0","2.196605816E0","-9.748479398E-1","3.018707526E0","3.858497214E0"
"7.012103083E0","3.356256761E0","-2.642911069E0","2.944947824E0","5.188656479E0"
"7.022123083E0","4.361570887E0","-4.580572502E0","1.313863510E0","6.459967676E0"
"7.032143083E0","4.133069885E0","-5.122993555E0","-8.447940230E-1","6.636339848E0"
"7.042163083E0","3.617534038E0","-4.223080169E0","-1.830369703E0","5.854161928E0"
"7.052182083E0","3.112486340E0","-2.293276371E0","-1.931701950E0","4.321823707E0"
"7.062202083E0","1.899661401E0","-6.556057526E-1","-2.643233251E0","3.320423823E0"
"7.072222083E0","-4.593367964E-2","2.360922955E-1","-1.470722671E0","1.490259927E0"
"7.082242083E0","-8.097759256E-1","9.145517443E-1","1.238485299E0","1.739536656E0"
"7.092261083E0","-6.825399283E-1","-2.064890852E-1","2.946982656E0","3.032029892E0"
"7.102281083E0","6.568267974E-1","-2.919746033E0","3.547637883E0","4.641343867E0"
"7.112301083E0","2.053213524E0","-4.482967562E0","3.406460955E0","5.993050990E0"
"7.122321083E0","2.190467556E0","-4.069809152E0","2.782195839E0","5.394636997E0"
"7.132340083E0","1.763666860E0","-2.817276210E0","7.868118632E-1","3.415646197E0"
"7.142360083E0","1.737632571E0","-2.011890666E0","-2.204409072E0","3.453475113E0"
"7.152380083E0","2.279569913E0","-2.105302129E0","-4.785933732E0","5.703849378E0"
"7.162400083E0","2.653618783E0","-2.680133567E0","-6.407264307E0","7.434907160E0"
"7.172419083E0","2.998092875E0","-2.092373058E0","-6.576517811E0","7.524438346E0"
"7.182439083E0","1.906264954E0","-8.287478015E-1","-5.505782697E0","5.885092362E0"
"7.192459083E0","-1.109242976E0","6.572394647E-2","-3.563700770E0","3.732921482E0"
"7.202479083E0","-4.285557376E0","5.818730211E-1","-1.567489412E0","4.600174050E0"
"7.212498083E0","-3.918147288E0","4.532230208E-1","-1.391754854E0","4.182615312E0"
"7.222518083E0","-1.896238880E0","-4.094427976E-1","-2.181858115E0","2.919566771E0"
"7.232538083E0","-1.567577121E0","-9.019570611E-1","-2.894686328E0","3.413214542E0"
"7.242558083E0","-2.973686305E0","-2.294410694E-1","-2.605724532E0","3.960461309E0"
"7.252577083E0","-3.818969740E0","4.691273012E-1","-2.090275515E0","4.378796870E0"
"7.262597083E0","-3.773745912E0","5.985709879E-1","-2.338623721E0","4.479799811E0"
"7.272617083E0","-3.853798387E0","1.072410633E0","-3.822041282E0","5.532614765E0"
"7.282637083E0","-4.330971530E0","2.223919038E0","-5.481927812E0","7.331757144E0"
"7.292656083E0","-4.850798650E0","2.872363413E0","-6.415312414E0","8.540313372E0"
"7.302676083E0","-4.910661859E0","2.951267495E0","-6.935256186E0","8.995685526E0"
"7.312696083E0","-5.434222133E0","2.788186312E0","-7.359817836E0","9.564082375E0"
"7.322716083E0","-7.646488109E0","2.060534091E0","-6.865859091E0","1.048115462E1"
"7.332735083E0","-9.649033170E0","2.389706313E0","-4.680119594E0","1.098717693E1"
"7.342755083E0","-7.274577127E0","3.474738599E0","-2.384879290E0","8.407195129E0"
"7.352775083E0","-4.380048088E0","4.284965053E0","-1.209921066E0","6.245771029E0"
"7.362795083E0","-3.672874133E0","4.390551442E0","2.795699984E-1","5.731064975E0"
"7.372814083E0","-3.873621910E0","4.229480531E0","1.211130270E0","5.861764990E0"
"7.382834083E0","-4.132331090E0","3.957122781E0","9.067540437E-1","5.792856276E0"
"7.392854083E0","-4.825453016E0","3.680021185E0","-2.911979468E0","6.731060627E0"
"7.402874083E0","-4.488117498E0","4.248220565E0","-5.320018995E0","8.154334967E0"
"7.412893083E0","-2.651464961E0","4.772122317E0","-1.957732000E0","5.799666579E0"
"7.422913083E0","3.902344603E0","5.609424010E0","6.102865861E0","9.161817660E0"
"7.432933083E0","1.413343710E1","2.344047598E0","1.739112793E1","2.253219772E1"
"7.442953250E0","2.594628505E1","-1.096583754E0","2.902816063E1","3.894927873E1"
"7.452972250E0","3.394425163E1","-4.030395994E0","3.925539455E1","5.205230362E1"
"7.462992250E0","3.799712286E1","-6.122545250E0","4.427957016E1","5.866811092E1"
"7.473012250E0","3.927127091E1","-6.423053543E0","4.204310373E1","5.788878049E1"
"7.483032250E0","3.665843090E1","-5.274632907E0","3.308465947E1","4.966142367E1"
"7.493051250E0","2.979901310E1","-3.986893002E0","2.037964453E1","3.632088117E1"
"7.503071250E0","2.169620361E1","-3.302269419E0","9.229759741E0","2.380795453E1"
"7.513091250E0","1.399699934E1","-3.194166096E0","3.348404535E0","1.474213351E1"
"7.523111250E0","8.081022186E0","-3.521599647E0","2.357092736E0","9.124717519E0"
"7.533130250E0","4.073963306E0","-4.441284224E0","3.513117092E0","6.975971207E0"
"7.543150250E0","1.095179983E0","-4.629558136E0","3.610141695E0","5.972047454E0"
"7.553170250E0","-7.449253339E-1","-3.485160092E0","2.696216626E0","4.468874435E0"
"7.563190250E0","-1.766400579E0","-2.803110160E0","1.081178241E0","3.485189229E0"
"7.573209250E0","-2.465074437E0","-2.116777728E0","-4.102149224E-1","3.274998658E0"
"7.583229250E0","-3.663275928E0","-1.920457901E0","-2.022703922E0","4.604245892E0"
"7.593249250E0","-5.552703679E0","-2.564046456E0","-4.004703037E0","7.310574450E0"
"7.603269250E0","-7.314370937E0","-3.383936603E0","-5.407452995E0","9.705235548E0"
"7.613288250E0","-8.655246245E0","-4.239506752E0","-5.385993714E0","1.104063555E1"
"7.623308250E0","-1.058453037E1","-4.905654888E0","-3.592764355E0","1.220678863E1"
"7.633328250E0","-1.232800870E1","-5.776444463E0","-1.516904565E0","1.369847103E1"
"7.643348250E0","-1.397937583E1","-6.259130360E0","-1.562375657E-1","1.531744338E1"
"7.653367250E0","-1.529031690E1","-5.519483893E0","3.275260106E-1","1.625932861E1"
"7.663387250E0","-1.733609862E1","-5.683051565E0","3.161136344E-2","1.824385896E1"
"7.673407250E0","-1.951144995E1","-6.413332547E0","-8.548078915E-1","2.055622071E1"
"7.683427250E0","-2.123305501E1","-6.855762119E0","-1.707171793E0","2.237763470E1"
"7.693446250E0","-2.253384999E1","-7.323234732E0","-2.042998438E0","2.378188397E1"
"7.703466250E0","-2.363852468E1","-7.301254463E0","-1.412542291E0","2.478070705E1"
"7.713486250E0","-2.320961037E1","-7.023274907E0","-4.494766366E-1","2.425313244E1"
"7.723506250E0","-2.187274274E1","-6.733313237E0","7.282122374E-1","2.289726349E1"
"7.733525250E0","-2.036372841E1","-6.360952020E0","1.830681360E0","2.141248560E1"
"7.743545250E0","-1.909389794E1","-5.770826458E0","2.653335485E0","2.012261329E1"
"7.753565250E0","-1.809136592E1","-5.257435076E0","2.925328077E0","1.906556290E1"
"7.763585250E0","-1.732752426E1","-4.947330333E0","2.747711885E0","1.822824992E1"
"7.773604250E0","-1.653164336E1","-4.423894604E0","2.212757142E0","1.725579236E1"
"7.783624250E0","-1.549575298E1","-3.644899007E0","9.040052676E-1","1.594430540E1"
"7.793644250E0","-1.429310585E1","-2.849061966E0","-6.590408456E-1","1.458918653E1"
"7.803664250E0","-1.331585251E1","-2.276880632E0","-1.237369065E0","1.356566238E1"
"7.813683250E0","-1.260424637E1","-1.961421009E0","-7.506620371E-1","1.277801598E1"
"7.823703250E0","-1.216131042E1","-1.729757833E0","1.775050950E-1","1.228499253E1"
"7.833723250E0","-1.123397009E1","-1.538947691E0","1.621407173E0","1.145423089E1"
"7.843743250E0","-1.000582442E1","-1.355848565E0","2.486791581E0","1.039898938E1"
"7.853762250E0","-9.084050050E0","-6.895226732E-1","2.255860476E0","9.385324359E0"
"7.863782250E0","-7.945363859E0","6.303795487E-2","1.196632683E0","8.035216887E0"
"7.873802250E0","-6.518279543E0","7.907417768E-1","-9.164458036E-2","6.566706898E0"
"7.883822250E0","-5.737098548E0","1.286292426E0","-1.217500373E0","6.004261413E0"
"7.893841250E0","-4.004327645E0","1.430676261E0","-1.158229267E0","4.407149815E0"
"7.903861250E0","-1.550321987E0","2.026570686E0","9.946336750E-1","2.738573197E0"
"7.913881250E0","3.701802063E-1","2.789100816E0","2.778809717E0","3.954478498E0"
"7.923900250E0","2.693670164E0","3.083101743E0","2.743628190E0","4.928374068E0"
"7.933920250E0","4.188858170E0","2.900753691E0","2.055997968E0","5.494363693E0"
"7.943940250E0","5.627331108E0","2.590121822E0","1.862055180E0","6.468603863E0"
"7.953960250E0","7.635224617E0","2.461466413E0","2.626144763E0","8.441096385E0"
"7.963980250E0","1.170383597E1","2.631687631E0","4.097514721E0","1.267656038E1"
"7.973999250E0","1.878364936E1","4.533051888E0","6.056648884E0","2.024986514E1"
"7.984019250E0","2.827372948E1","8.673132877E0","6.944446254E0","3.037848492E1"
"7.994039250E0","3.812353732E1","1.153158167E1","6.716624699E0","4.039176303E1"
"8.004058250E0","4.390569451E1","1.113185665E1","5.960310743E0","4.568537564E1"
"8.014078250E0","4.330720159E1","8.739712198E0","4.440659156E0","4.440287977E1"
"8.024098250E0","3.816012452E1","6.620922736E0","3.131994991E0","3.885667399E1"
"8.034118250E0","3.053488519E1","4.467271004E0","2.050417970E0","3.092797985E1"
"8.044137250E0","2.218776967E1","1.941158360E0","6.510319144E-1","2.228203450E1"
"8.054157250E0","1.441575120E1","-2.057228807E-1","-6.357151330E-1","1.443122788E1"
"8.064177250E0","7.694192033E0","-1.747807311E0","-1.471419659E0","8.026238051E0"
"8.074197250E0","2.743329982E0","-2.683703585E0","-2.090421111E0","4.370124110E0"
"8.084216250E0","1.105827763E0","-2.708863277E0","-2.472676402E0","3.830786327E0"
"8.094236250E0","-1.327188730E0","-2.042993175E0","-2.091269542E0","3.210710098E0"
"8.104256250E0","-4.586080579E0","-2.797076418E0","-2.474097276E0","5.914129598E0"
"8.114276250E0","-6.415141091E0","-3.221790681E0","-3.171195309E0","7.847958339E0"
"8.124295250E0","-8.419810445E0","-3.403045304E0","-3.881121549E0","9.876083725E0"
"8.134315250E0","-9.669043511E0","-4.070271666E0","-4.154675932E0","1.128356530E1"
"8.144335250E0","-1.051632962E1","-4.401605311E0","-4.301897128E0","1.218497587E1"
"8.154355250E0","-1.088885105E1","-4.371145118E0","-4.393393189E0","1.252900198E1"
"8.164374250E0","-1.128901812E1","-4.518245569E0","-3.915108490E0","1.277437073E1"
"8.174394250E0","-1.202196543E1","-4.805166686E0","-3.042050781E0","1.329929895E1"
"8.184414250E0","-1.168606862E1","-4.883739816E0","-2.600648564E0","1.292975202E1"
"8.194434250E0","-1.085268134E1","-5.064292772E0","-2.162485705E0","1.216980271E1"
"8.204453250E0","-1.028521959E1","-5.030902247E0","-1.904869078E0","1.160707739E1"
"8.214473250E0","-9.822715355E0","-4.599810719E0","-1.655404639E0","1.097198068E1"
"8.224493250E0","-9.420492407E0","-4.648222156E0","-1.342090359E0","1.059022440E1"
"8.234513250E0","-9.311054749E0","-5.188350223E0","-1.295654111E0","1.073747820E1"
"8.244532250E0","-9.283103305E0","-5.769113224E0","-1.517747734E0","1.103459254E1"
"8.254552250E0","-8.640401918E0","-6.108434749E0","-1.985388161E0","1.076621041E1"
"8.264572250E0","-7.302058455E0","-6.151804132E0","-2.286672964E0","9.818025515E0"
"8.274591250E0","-5.701770256E0","-6.564663166E0","-2.172687342E0","8.962452612E0"
"8.284611250E0","-4.092937521E0","-7.538842038E0","-1.896722152E0","8.785432929E0"
"8.294631250E0","-2.642064977E0","-8.523563440E0","-1.437508732E0","9.038698602E0"
"8.304651250E0","-1.165372884E0","-9.001053502E0","-1.308774093E0","9.170057128E0"
"8.314670250E0","6.603424358E-1","-9.239063246E0","-1.554399251E0","9.392150916E0"
"8.324690250E0","3.010212691E0","-9.014797382E0","-1.466858246E0","9.616632748E0"
"8.334710250E0","5.955920069E0","-8.197960067E0","-1.375461588E0","1.022601720E1"
"8.344730250E0","8.617210107E0","-6.793574642E0","-1.217028868E0","1.104038612E1"
"8.354749250E0","1.077650499E1","-5.279390202E0","-1.150589368E0","1.205524270E1"
"8.364769250E0","1.314342046E1","-3.924502627E0","-1.074106618E0","1.375881271E1"
"8.374789250E0","1.503988533E1","-2.498706160E0","3.341486402E-1","1.524969963E1"
"8.384809250E0","1.598180863E1","-1.342657392E0","2.005463845E0","1.616300780E1"
"8.394828250E0","1.536640672E1","-5.005394573E-1","1.841993383E0","1.548450628E1"
"8.404848250E0","1.300822348E1","2.043666007E-1","8.701206529E-1","1.303889388E1"
"8.414868250E0","9.495801036E0","5.487077235E-1","1.420122036E-1","9.512701244E0"
"8.424888250E0","5.720991223E0","5.950880939E-1","9.688982517E-3","5.751866158E0"
"8.434907250E0","2.688377849E0","5.961645297E-1","2.484343059E-1","2.764870198E0"
"8.444927583E0","4.956117529E-1","6.970366377E-1","6.209944752E-1","1.056941447E0"
"8.454947583E0","-1.171077427E0","9.697761380E-1","9.597562762E-1","1.798060124E0"
"8.464967583E0","-2.605102388E0","1.327270883E0","1.113039719E0","3.128428338E0"
"8.474986583E0","-3.746559575E0","1.844212694E0","1.244151982E0","4.357263277E0"
"8.485006583E0","-4.522006790E0","2.404445389E0","1.597060682E0","5.364746579E0"
"8.495026583E0","-4.867947364E0","2.779119034E0","2.091281090E0","5.982797903E0"
"8.505046583E0","-4.516812124E0","3.160370944E0","2.142222179E0","5.914275283E0"
"8.515065583E0","-3.722277843E0","4.136435543E0","2.076018834E0","5.939301772E0"
"8.525085583E0","-3.931798198E0","5.331549704E0","2.293656732E0","7.010372352E0"
"8.535105583E0","-4.401326106E0","6.055253738E0","2.501417806E0","7.892709317E0"
"8.545124583E0","-4.956231549E0","6.533404536E0","2.284497946E0","8.512845403E0"
"8.555144583E0","-5.643472347E0","6.777910536E0","2.184884634E0","9.086394897E0"
"8.565164583E0","-6.372913669E0","6.903295889E0","2.294958469E0","9.671419603E0"
"8.575184583E0","-6.616742561E0","7.235675016E0","2.415754781E0","1.009812588E1"
"8.585203583E0","-5.811695572E0","8.000319500E0","2.126114416E0","1.011440952E1"
"8.595223583E0","-4.158121696E0","9.451984341E0","1.328838229E0","1.041133013E1"
"8.605243583E0","-1.799559554E0","1.066953251E1","9.081439269E-1","1.085827169E1"
"8.615263583E0","-1.454980212E-1","1.141281069E1","8.798271771E-1","1.144759858E1"
"8.625282583E0","5.157068789E-1","1.189992351E1","7.640359350E-1","1.193557222E1"
"8.635302583E0","6.567393816E-1","1.199836957E1","8.041127510E-1","1.204320457E1"
"8.645322583E0","-7.227158546E-2","1.138627135E1","1.126272991E0","1.144206665E1"
"8.655342583E0","-1.110479223E0","1.071164767E1","1.812030057E0","1.092044014E1"
"8.665361583E0","-1.106800155E0","1.044449306E1","1.883966013E0","1.067060307E1"
"8.675381583E0","1.357635766E-1","1.023854594E1","2.155116459E0","1.046378429E1"
"8.685401583E0","2.458414459E0","9.924233544E0","2.680622102E0","1.056976575E1"
"8.695420583E0","6.622985049E0","9.717625687E0","2.766116581E0","1.208087666E1"
"8.705440583E0","1.293937485E1","9.788698593E0","2.191244212E0","1.637215908E1"
"8.715460583E0","2.097621255E1","8.517051980E0","6.710052721E-1","2.264932484E1"
"8.725480583E0","3.022962077E1","6.550967233E0","-1.950966918E0","3.099276393E1"
"8.735499583E0","3.920889749E1","6.122513090E0","-4.491079112E0","3.993735846E1"
"8.745519583E0","4.615721869E1","6.199147868E0","-5.373345602E0","4.688060489E1"
"8.755539583E0","5.110968873E1","4.323257006E0","-3.588714573E0","5.141760113E1"
"8.765559583E0","5.226261465E1","1.541621477E0","1.041314117E0","5.229571514E1"
"8.775578583E0","5.096353173E1","-7.384532701E-1","5.154581383E0","5.122886480E1"
"8.785598583E0","4.918446725E1","-3.047677556E0","6.252177436E0","4.967383496E1"
"8.795618583E0","4.535243132E1","-6.190944225E0","5.353286144E0","4.608501372E1"
"8.805638583E0","3.825046868E1","-9.827835177E0","3.021316262E0","3.960824473E1"
"8.815657583E0","2.901544410E1","-1.276017173E1","1.769681744E-1","3.169778063E1"
"8.825677583E0","1.985451077E1","-1.475596092E1","-2.228660253E0","2.483761073E1"
"8.835697583E0","1.184510002E1","-1.570271167E1","-3.507927103E0","1.997966718E1"
"8.845717583E0","5.545848988E0","-1.555479231E1","-4.131361914E0","1.702281282E1"
"8.855736583E0","7.765073150E-1","-1.482840324E1","-4.711665615E0","1.557832787E1"
"8.865756583E0","-2.193364851E0","-1.382681613E1","-4.814419028E0","1.480440219E1"
"8.875776583E0","-3.563047051E0","-1.317262613E1","-4.254123329E0","1.429373810E1"
"8.885795583E0","-4.427857262E0","-1.329986739E1","-2.983689429E0","1.433160128E1"
"8.895815583E0","-5.403597341E0","-1.339852746E1","-1.274174803E0","1.450320392E1"
"8.905835583E0","-6.061341859E0","-1.352573247E1","1.283383437E-1","1.482234039E1"
"8.915855583E0","-6.222054920E0","-1.404678253E1","1.375310730E0","1.542457606E1"
"8.925874583E0","-6.384893444E0","-1.460775037E1","2.419436481E0","1.612472971E1"
"8.935894583E0","-6.914536577E0","-1.518321229E1","2.960723612E0","1.694422131E1"
"8.945914583E0","-8.082424348E0","-1.604490359E1","2.914590250E0","1.820053161E1"
"8.955934583E0","-9.854808383E0","-1.710258421E1","2.609860268E0","1.991047477E1"
"8.965953583E0","-1.182460202E1","-1.783417380E1","2.047997076E0","2.149588938E1"
"8.975973583E0","-1.350875566E1","-1.807397162E1","1.468474417E0","2.261219465E1"
"8.985993583E0","-1.483966732E1","-1.825410446E1","8.506073248E-1","2.354042456E1"
"8.996013583E0","-1.563653405E1","-1.837624811E1","-2.370847142E-1","2.412973065E1"
"9.006032583E0","-1.600510393E1","-1.814072695E1","-1.154321354E0","2.421945053E1"
"9.016052583E0","-1.627120838E1","-1.767418463E1","-1.188378607E0","2.405288482E1"
"9.026072583E0","-1.632958815E1","-1.731304889E1","-5.058645532E-1","2.380447458E1"
"9.036091583E0","-1.617824818E1","-1.703122245E1","5.646501204E-1","2.349717179E1"
"9.046111583E0","-1.603772789E1","-1.662018424E1","1.586483069E0","2.315072717E1"
"9.056131583E0","-1.593140329E1","-1.609198654E1","2.331180946E0","2.276391983E1"
"9.066151583E0","-1.583794139E1","-1.552137548E1","3.049778168E0","2.238424962E1"
"9.076170583E0","-1.545118784E1","-1.490643784E1","3.523799955E0","2.175679804E1"
"9.086190583E0","-1.484913980E1","-1.417076806E1","3.515105145E0","2.082459086E1"
"9.096210583E0","-1.381646773E1","-1.319202018E1","3.037948959E0","1.934304295E1"
"9.106230583E0","-1.250129795E1","-1.182680993E1","2.621637729E0","1.740772437E1"
"9.116249583E0","-1.124854369E1","-1.056886100E1","2.498457946E0","1.563562759E1"
"9.126269583E0","-1.026465610E1","-9.432907215E0","2.301462619E0","1.412938900E1"
"9.136289583E0","-9.519289886E0","-8.106631236E0","2.030549716E0","1.266718130E1"
"9.146309583E0","-8.995512096E0","-6.795906512E0","2.258329171E0","1.149798390E1"
"9.156328583E0","-9.033716633E0","-5.830869176E0","2.827385168E0","1.111760669E1"
"9.166348583E0","-9.617887976E0","-5.280107070E0","3.492136405E0","1.151426578E1"
"9.176368583E0","-9.674461541E0","-4.675175774E0","4.289134702E0","1.156931939E1"
"9.186387583E0","-9.697572076E0","-4.071934907E0","4.338353055E0","1.137738394E1"
"9.196407583E0","-9.531854383E0","-3.483631630E0","3.814503929E0","1.084169625E1"
"9.206427583E0","-9.036304611E0","-2.791330067E0","3.138698239E0","9.964825698E0"
"9.216447583E0","-7.790399780E0","-1.982115182E0","2.084296737E0","8.304420643E0"
"9.226466583E0","-6.811946009E0","-9.491384634E-1","1.310773256E0","7.001542600E0"
"9.236486583E0","-6.277973013E0","-2.836557403E-1","1.241148705E0","6.405767389E0"
"9.246506583E0","-6.270152362E0","-1.462590364E-1","1.881589558E0","6.548021198E0"
"9.256526583E0","-6.769675317E0","-2.652359878E-1","1.981347735E0","7.058653758E0"
"9.266545583E0","-6.501931897E0","-2.443973882E-1","1.147789721E0","6.606986433E0"
"9.276565583E0","-4.854489412E0","-1.945851043E-1","-1.302101836E-1","4.860132252E0"
"9.286585583E0","-1.512087044E0","2.033002330E-1","-1.526538145E0","2.158253211E0"
"9.296605583E0","4.114950534E0","5.754462732E-1","-2.784356678E0","5.001659566E0"
"9.306624583E0","1.036542468E1","5.044765703E-1","-3.650981573E0","1.100119047E1"
"9.316644583E0","1.617052050E1","3.900143272E-1","-2.570009154E0","1.637811928E1"
"9.326664583E0","2.117159843E1","1.455620775E0","2.719007903E0","2.139505588E1"
"9.336683583E0","2.636394464E1","2.551820220E0","6.984009100E0","2.739243959E1"
"9.346703583E0","3.289341342E1","2.394822188E0","6.203058486E0","3.355875079E1"
"9.356723583E0","3.749254557E1","1.119224904E0","5.072716856E0","3.785070797E1"
"9.366743583E0","3.831700531E1","4.531073190E-1","4.603909324E0","3.859526115E1"
"9.376762583E0","3.565558664E1","1.418087498E0","3.601060385E0","3.586501731E1"
"9.386782583E0","3.213391156E1","2.545638544E0","2.716390690E0","3.234883810E1"
"9.396802583E0","2.852619354E1","2.793238306E0","1.828723858E0","2.872090056E1"
"9.406822583E0","2.440956895E1","2.997959266E0","8.181716502E-1","2.460658897E1"
"9.416841583E0","1.825941256E1","2.630690096E0","-8.087248886E-1","1.846566309E1"
"9.426861583E0","1.205832458E1","1.589295726E0","-1.931355357E0","1.231499843E1"
"9.436881583E0","9.061496170E0","1.493562919E0","-1.778213124E0","9.354329743E0"
"9.446900875E0","6.413305065E0","2.037058544E0","-2.959147203E0","7.350961946E0"
"9.456920875E0","3.097066648E0","1.732430449E0","-4.700543919E0","5.889673184E0"
"9.466940875E0","2.188618666E-1","1.350936027E0","-4.705748818E0","4.900714295E0"
"9.476960875E0","-2.256611259E0","1.180785706E0","-4.773636453E0","5.410559513E0"
"9.486979875E0","-3.819907633E0","1.167456685E0","-4.166520052E0","5.771874806E0"
"9.496999875E0","-4.872609349E0","1.004853512E0","-3.002212823E0","5.810794634E0"
"9.507019875E0","-5.845146323E0","8.012585789E-1","-1.954421161E0","6.215103613E0"
"9.517039875E0","-6.427498596E0","6.966896054E-1","-8.567094791E-1","6.521661272E0"
"9.527058875E0","-6.152000014E0","6.930133148E-1","-1.929364818E-1","6.193916057E0"
"9.537078875E0","-5.912202192E0","8.136552608E-1","6.488471022E-1","6.003096884E0"
"9.547098875E0","-6.322273273E0","4.137033713E-1","9.682956961E-1","6.409359279E0"
"9.557117875E0","-6.381454697E0","2.380956978E-1","1.370255227E0","6.531252023E0"
"9.567137875E0","-6.161901104E0","3.355453938E-2","1.606445317E0","6.367952393E0"
"9.577157875E0","-5.553053343E0","-1.384538805E-1","1.537007585E0","5.763502687E0"
"9.587177875E0","-4.993921532E0","-4.660301042E-1","1.418301798E0","5.212294727E0"
"9.597196875E0","-4.424070606E0","-6.618948716E-1","1.282570381E0","4.653546210E0"
"9.607216875E0","-3.945027523E0","-7.710439691E-1","1.101933517E0","4.167974141E0"
"9.617236875E0","-3.281645705E0","-1.026729261E0","9.611501062E-1","3.570319458E0"
"9.627256875E0","-2.634709180E0","-1.285864118E0","9.286489427E-1","3.075309391E0"
"9.637275875E0","-2.278440669E0","-1.585965737E0","1.110943492E0","2.990112815E0"
"9.647295875E0","-1.867228796E0","-1.553461065E0","1.466721421E0","2.837438349E0"
"9.657315875E0","-1.176003706E0","-1.135360880E0","1.737316821E0","2.385434715E0"
"9.667334875E0","-2.262235111E-1","-7.582683876E-1","1.783121862E0","1.950813061E0"
"9.677354875E0","8.988614720E-1","-3.852221686E-1","1.612600974E0","1.885955982E0"
"9.687374875E0","1.785672417E0","9.687286824E-2","1.489177361E0","2.327156966E0"
"9.697394875E0","2.328579374E0","6.049456224E-1","1.165915505E0","2.673499593E0"
"9.707413875E0","2.618010117E0","6.778434446E-1","8.384471628E-1","2.831332257E0"
"9.717433875E0","2.489563746E0","3.766969281E-1","8.841495851E-1","2.668622999E0"
"9.727453875E0","2.006507134E0","4.033280718E-1","1.065657976E0","2.307459932E0"
"9.737473875E0","1.733089576E0","5.021197039E-1","9.028697383E-1","2.017646510E0"
"9.747492875E0","1.649474977E0","5.121424162E-1","5.476934874E-1","1.811912170E0"
"9.757512875E0","1.395681844E0","4.727073321E-1","7.075829682E-1","1.634641762E0"
"9.767532875E0","8.384609038E-1","4.730710289E-1","8.611697352E-1","1.291675733E0"
"9.777551875E0","6.390117931E-1","7.315559676E-1","4.674594560E-1","1.077974280E0"
"9.787571875E0","4.206393385E-1","9.030252743E-1","-4.112756073E-1","1.077747523E0"
"9.797591875E0","-1.354460728E-1","8.311358044E-1","-7.291852140E-1","1.113931524E0"
"9.807611875E0","-8.015123481E-1","8.069020191E-1","-2.397083598E-1","1.162313645E0"
"9.817630875E0","-1.317017498E0","8.532458809E-1","5.580828202E-1","1.665538969E0"
"9.827650875E0","-1.719455039E0","1.146622617E0","1.256424849E0","2.418650958E0"
"9.837670875E0","-1.996090320E0","1.549564188E0","1.576742924E0","2.978530508E0"
"9.847690875E0","-2.338728971E0","1.975538234E0","1.689966069E0","3.496911469E0"
"9.857709875E0","-2.579322014E0","2.431016745E0","1.767039972E0","3.960451329E0"
"9.867729875E0","-2.281875908E0","2.899266452E0","1.331751604E0","3.922533105E0"
"9.877749875E0","-2.088317283E0","3.508693965E0","5.001524082E-1","4.113654683E0"
"9.887768875E0","-1.840706996E0","4.050532343E0","-2.092797419E-1","4.454078190E0"
"9.897788875E0","-1.971774673E0","4.424744205E0","-4.233360744E-1","4.862660802E0"
"9.907808875E0","-2.323509838E0","4.607270304E0","1.025774118E-1","5.161023130E0"
"9.917828875E0","-2.919762697E0","4.777264650E0","1.058877253E0","5.698113090E0"
"9.927847875E0","-3.294662776E0","5.032213193E0","1.920652467E0","6.314022357E0"
"9.937867875E0","-3.416870753E0","5.300904447E0","2.398306544E0","6.747330433E0"
"9.947887875E0","-2.882775550E0","5.040239081E0","2.462954822E0","6.307182519E0"
"9.957907875E0","-1.926865134E0","4.371632191E0","1.967678407E0","5.166791613E0"
"9.967926875E0","-1.117394140E0","4.529230148E0","1.126489484E0","4.799111788E0"
"9.977946875E0","-6.368167484E-1","4.868014899E0","3.486229840E-1","4.921853575E0"
"9.987966875E0","-6.789243025E-1","4.831200537E0","-1.972873950E-1","4.882659025E0"
"9.997985875E0","-1.104536113E0","4.534884990E0","-1.395017016E-1","4.669544156E0"
"1.000800587E1","-1.926865134E0","4.371632191E0","1.967678407E0","5.166791613E0"
"1.001802587E1","-7.221717987E0","6.284570924E0","1.314182637E0","1.074819788E1"
"1.002804588E1","-1.740499043E1","1.011756465E1","1.782507641E0","2.327511146E1"
"1.003806487E1","-3.260620758E1","1.576391643E1","4.839514846E0","3.365022244E1"
"1.004808487E1","-4.007881070E1","1.551775469E1","5.428186817E0","4.186831437E1"
"1.005810487E1","-4.164942957E1","1.564008668E1","5.156105398E0","4.452570429E1"
"1.006812388E1","-2.782330799E1","1.022137054E1","3.035887353E0","2.996420097E1"
"1.007814387E1","-2.197335828E1","4.195786439E0","3.993657686E0","2.178262558E1"
"1.008816387E1","-1.220514102E1","2.345644986E-1","5.529946180E0","1.354067851E1"
"1.009818387E1","-6.265981711E0","-2.188518348E0","4.918574937E0","8.433921211E0"
"1.010820288E1","-2.797615618E0","-3.625511617E0","2.709239331E0","5.877007380E0"
"1.011822287E1","-2.264240059E-1","-4.310192635E0","4.488925395E-1","4.921006129E0"
"1.012824287E1","1.549952439E0","-6.032719870E0","-2.064796338E0","5.386346299E0"
"1.013826287E1","2.789398158E0","-4.777970626E0","-4.192285418E0","7.161428642E0"
"1.014828188E1","4.042417576E0","-4.860418963E0","-6.704033607E0","8.980418916E0"
"1.015830187E1","4.993433348E0","-5.659770563E0","-6.966869270E0","1.170253108E1"
"1.016832187E1","5.240869299E0","-5.703220567E0","-7.481350811E0","1.086067359E1"
"1.017834088E1","5.722994640E0","-9.548282344E0","-7.067191091E0","1.282044676E1"
"1.018836088E1","5.318578555E0","-7.928640379E0","-6.770429813E0","1.145606370E1"
"1.019838087E1","6.463839745E0","-8.681507304E0","-6.398536939E0","1.430016611E1"
"1.020840087E1","8.483747364E0","-9.804069168E0","-4.667851612E0","1.382327555E1"
"1.021841988E1","8.932942226E0","-1.206197486E1","-4.626311622E0","1.546635829E1"
"1.022843988E1","1.107877217E1","-1.193022876E1","-4.404985786E0","1.601590337E1"
"1.023845987E1","1.197186617E1","-1.307331809E1","-5.306391227E0","1.971002826E1"
"1.024847887E1","1.166419611E1","-1.168184925E1","-6.161842316E0","1.779760229E1"
"1.025849888E1","1.244091567E1","-1.222506261E1","-6.422049070E0","1.923960448E1"
"1.026851888E1","1.174428794E1","-1.808437328E1","-8.304461635E0","1.916809307E1"
"1.027853887E1","1.223447941E1","-1.168275095E1","-1.359300365E1","2.056460777E1"
"1.028855787E1","1.111336912E1","-1.457785653E1","-8.898183099E0","1.865795419E1"
"1.029857788E1","1.126914799E1","-1.289554264E1","-8.427288947E0","1.942148528E1"
"1.030859788E1","1.056688387E1","-1.471875957E1","-7.921887812E0","1.882714163E1"
"1.031861687E1","1.010904408E1","-1.272211671E1","-7.980874057E0","1.657625182E1"
"1.032863688E1","1.117610743E1","-1.184114556E1","-1.105986983E1","1.862701459E1"
"1.033865688E1","1.378765717E1","-1.422268002E1","-8.657132845E0","2.092602597E1"
"1.034867688E1","1.143242359E1","-1.413732846E1","-8.501566528E0","1.806260523E1"
"1.035869587E1","1.245898629E1","-1.322101899E1","-1.084942259E1","2.002325673E1"
"1.036871588E1","1.774886043E1","-1.231758875E1","-1.033819191E1","2.171328701E1"
"1.037873588E1","1.351044348E1","-1.249188715E1","-1.177764109E1","2.011205238E1"
"1.038875587E1","1.074895218E1","-1.220153259E1","-1.153166779E1","2.165416589E1"
"1.039877487E1","9.691381740E0","-9.618427149E0","-1.225527808E1","1.773431108E1"
"1.040879488E1","8.269496853E0","-9.153978735E0","-1.239506613E1","1.840274180E1"
"1.041881488E1","7.167929225E0","-1.287248977E1","-1.022821716E1","1.842180884E1"
"1.042883387E1","8.698169274E0","-8.172707361E0","-1.043487218E1","1.790723109E1"
"1.043885387E1","4.600201934E0","-6.604155298E0","-7.316665228E0","1.113263991E1"
"1.044887633E1","1.697165605E0","-3.907829316E0","-3.980466837E0","6.201445307E0"
"1.045889633E1","-1.260479125E-1","-2.573189185E0","-1.099730338E0","3.189292625E0"
"1.046891533E1","2.385069063E-1","-1.208819013E0","1.711415784E0","2.014373315E0"
"1.047893533E1","1.837170581E0","6.194570396E-1","4.204649843E0","4.303146842E0"
"1.048895533E1","4.016612350E0","2.068357019E0","6.600251894E0","9.963907304E0"
"1.049897433E1","3.316668508E0","3.416234200E0","1.094895428E1","1.193282263E1"
"1.050899433E1","1.084223147E-1","2.820949641E0","1.433993084E1","1.291539216E1"
"1.051901433E1","-4.238837608E0","2.130814561E0","1.520797114E1","1.767026617E1"
"1.052903433E1","-6.750499714E0","1.429896512E0","1.751863677E1","1.827148268E1"
"1.053905333E1","-8.054694110E0","5.185247247E-1","1.942296642E1","2.080208949E1"
"1.054907333E1","-9.068485808E0","-7.194034528E-1","2.258690042E1","2.533632878E1"
"1.055909333E1","-6.528825062E0","-9.376206542E-1","2.421806494E1","2.378173125E1"
"1.056911233E1","-2.720797211E0","-1.936595013E0","2.011986858E1","2.020487207E1"
"1.057913233E1","-1.280065321E-1","-2.530194304E0","2.284449903E1","2.125206578E1"
"1.058915233E1","1.061064778E0","-2.072296691E0","2.008641503E1","1.971624241E1"
"1.059917233E1","4.041005424E-1","-1.266087092E0","1.921541091E1","1.883465407E1"
"1.060919133E1","-3.899757451E-1","-1.066673582E0","1.849475169E1","1.784690403E1"
"1.061921133E1","-2.170445235E0","-7.695594080E-1","1.661465202E1","1.738269419E1"
"1.062923133E1","-3.957300438E0","-1.666266152E-1","1.292453282E1","1.237800426E1"
"1.063925033E1","-5.251597266E0","1.072644099E0","1.020915223E1","1.236280999E1"
"1.064927033E1","-4.678679796E0","2.477596334E0","6.884496085E0","9.953688402E0"
"1.065929033E1","-3.467462100E0","2.548205095E0","4.212320415E0","6.137738574E0"
"1.066931033E1","-1.905187762E0","2.470492585E0","1.334270926E0","3.308765271E0"
"1.067932933E1","-8.787686132E-1","2.314923330E0","-7.032196455E-1","2.859045474E0"
"1.068934933E1","-5.099394067E-2","2.403526525E0","-3.397545842E0","2.811383133E0"
"1.069936933E1","4.119335122E-1","1.960883722E0","-2.939925272E0","3.889049154E0"
"1.070938833E1","4.295146829E-1","2.175017974E0","-3.165239253E0","4.410858567E0"
"1.071940833E1","1.860453981E-1","1.686828966E0","-4.431853653E0","4.615273414E0"
"1.072942833E1","-1.327628579E-1","1.428370195E0","-4.836014316E0","4.870332454E0"
"1.073944833E1","-1.793177168E-1","1.131497158E0","-5.233326195E0","5.032426260E0"
"1.074946733E1","-3.088951573E-2","8.903361751E-1","-5.252705646E0","5.030401893E0"
"1.075948733E1","3.885606849E-1","3.385738906E-1","-4.752130486E0","5.590759772E0"
"1.076950733E1","1.120002258E0","-1.423006131E-1","-4.211953923E0","5.203659294E0"
"1.077952633E1","1.510174394E0","-4.841710965E-1","-3.430017622E0","4.571875377E0"
"1.078954633E1","2.094453903E0","-5.449963524E-1","-2.786018391E0","3.536303970E0"
"1.079956633E1","1.116727355E0","-2.378823112E-1","-2.549234165E0","2.634118348E0"
"1.080958633E1","-1.815828799E-1","2.576947225E-1","-2.774013130E0","2.736502712E0"
"1.081960533E1","-1.240946163E0","1.886552012E-1","-2.682507611E0","2.850462454E0"
"1.082962533E1","-1.433671655E0","4.032930087E-1","-2.666947737E0","2.939357439E0"
"1.083964533E1","-1.556223460E0","6.064821485E-1","-2.303907316E0","2.816510565E0"
"1.084966433E1","-1.451645030E0","4.476388923E-1","-1.816188802E0","2.224635649E0"
"1.085968433E1","-1.095057964E0","2.244886456E-1","-1.161086405E0","1.526419607E0"
"1.086970433E1","-3.030904491E-1","-6.116197901E-1","-7.040719975E-1","1.065981606E0"
"1.087972433E1","5.454872116E-1","-1.129891505E0","-1.036769997E-1","1.169902479E0"
"1.088974333E1","9.823433687E-1","-1.419899691E0","2.007890865E-1","1.674447857E0"
"1.089976333E1","1.150876939E0","-1.071251018E0","-2.443729968E-1","1.651693726E0"
"1.090978333E1","1.039619224E0","-7.818418442E-1","-1.344133346E0","1.933537352E0"
"1.091980233E1","8.893633683E-1","-3.420483854E-1","-2.998833338E0","2.895537676E0"
"1.092982233E1","1.547964458E-1","1.736687116E-1","-3.067234852E0","2.940607440E0"
"1.093984233E1","-7.901701513E-1","5.603196226E-1","-2.419651635E0","2.695614191E0"
"1.094986233E1","-7.302599366E-1","8.290926000E-1","-1.635159227E0","2.130492529E0"
"1.095988133E1","-2.406752900E-1","5.422402919E-1","-1.759754655E0","1.650331734E0"
"1.096990133E1","7.071718851E-1","-1.753150116E-1","-1.823438445E0","2.255905669E0"
"1.097992133E1","1.056949464E0","-6.114775455E-1","-2.119024917E0","2.205605464E0"
"1.098994033E1","1.254339922E0","-8.334588866E-1","-2.662805602E0","2.915337405E0"
"1.099996033E1","1.179431911E0","-4.071000884E-1","-3.618296162E0","3.828924658E0"
"1.100998033E1","5.683918262E-1","-2.557663904E-1","-4.588973195E0","5.164702172E0"
"1.102000033E1","-5.383538716E-1","4.070068921E-1","-5.089915897E0","6.034027261E0"
"1.103001933E1","-1.616948539E0","1.423240670E0","-5.956680574E0","6.146869821E0"
"1.104003933E1","-2.170676456E0","1.719285340E0","-4.520415919E0","5.098142459E0"
"1.105005933E1","-2.252761684E0","1.543036578E0","-2.444003195E0","3.732430995E0"
"1.106007833E1","-9.008484755E-1","8.182011698E-1","-3.177560150E-1","1.360680493E0"
"1.107009833E1","8.251932045E-1","1.803493669E-1","2.100245468E0","2.090077901E0"
"1.108011833E1","1.348683300E0","-1.995168814E-2","4.056737175E0","4.522305271E0"
"1.109013833E1","5.440783515E-1","9.316942865E-1","9.250240046E0","5.771081976E0"
"1.110015733E1","-2.303920037E0","2.212922990E0","9.440290728E0","9.699131472E0"
"1.111017733E1","-5.797348027E0","2.946805267E0","2.357536872E1","1.834078388E1"
"1.112019733E1","-7.877064702E0","3.948441632E0","2.215734873E1","2.471253617E1"
"1.113021633E1","-9.367141729E0","3.678139880E0","2.694904042E1","3.090374912E1"
"1.114023633E1","-8.808992432E0","3.400984910E0","3.193793545E1","2.900133579E1"
"1.115025633E1","-9.362503541E0","3.970407768E0","3.284383535E1","3.214085174E1"
"1.116027533E1","-1.153592703E1","4.993443125E0","3.459649411E1","3.239757539E1"
"1.117029533E1","-1.008155261E1","8.278113428E0","3.005786749E1","2.946892673E1"
"1.118031533E1","-7.444408726E0","7.129086055E0","2.525018412E1","2.811402554E1"
"1.119033533E1","-5.331549664E0","7.311302111E0","2.142364277E1","2.431097321E1"
"1.120035433E1","-1.921004090E0","7.964340255E0","1.515370323E1","1.725127789E1"
"1.121037433E1","1.925792325E-1","8.417846406E0","9.007288686E0","1.227778908E1"
"1.122039433E1","5.736384076E-1","7.313406942E0","5.810247100E0","8.486460239E0"
"1.123041333E1","4.125334899E-1","5.253830743E0","3.138722721E0","6.384399904E0"
"1.124043333E1","3.628229261E-1","3.419102823E0","7.194309287E-1","2.806343220E0"
"1.125045333E1","8.509789478E-1","4.294439516E-1","-1.614435678E0","1.753690128E0"
"1.126047333E1","1.497793511E0","-2.120075797E0","-3.640677015E0","3.980257245E0"
"1.127049233E1","2.469964204E0","-3.934242626E0","-5.549238661E0","6.880587340E0"
"1.128051233E1","2.613291114E0","-6.042725566E0","-6.621038329E0","1.229843501E1"
"1.129053233E1","3.266226223E0","-8.467173021E0","-8.144218118E0","1.231801693E1"
"1.130055133E1","3.808464820E0","-9.037853774E0","-1.048092898E1","1.338330728E1"
"1.131057133E1","4.286798345E0","-1.190917678E1","-1.128650648E1","1.722496699E1"
"1.132059133E1","5.041702942E0","-1.258409749E1","-1.139412392E1","1.847988641E1"
"1.133061133E1","6.093113119E0","-1.310139134E1","-1.126011743E1","2.000104584E1"
"1.134063033E1","7.431336736E0","-1.497770096E1","-1.189820680E1","2.003954607E1"
"1.135065033E1","7.295460565E0","-1.583714663E1","-9.119700946E0","2.090516176E1"
"1.136067033E1","7.420868865E0","-1.783424460E1","-8.609166700E0","1.909204975E1"
"1.137068933E1","7.510080855E0","-1.566285831E1","-9.181361524E0","1.950884804E1"
"1.138070933E1","7.265470546E0","-1.771200425E1","-7.545744689E0","1.816099092E1"
"1.139072933E1","8.898563925E0","-2.422863813E1","-7.899052238E0","2.061799219E1"
"1.140074933E1","6.526001024E0","-1.718254368E1","-7.562446302E0","2.145047265E1"
"1.141076833E1","5.886375392E0","-1.495086925E1","-7.429380639E0","1.822837167E1"
"1.142078833E1","6.539780778E0","-1.557933477E1","-6.206054143E0","1.730816950E1"
"1.143080833E1","6.674814820E0","-1.539213040E1","-5.951430341E0","1.644279498E1"
"1.144082733E1","6.531063160E0","-1.618696572E1","-5.721306778E0","1.633822634E1"
"1.145084488E1","6.749222704E0","-1.358308268E1","-9.341222769E0","1.738396682E1"
"1.146086487E1","6.793845339E0","-1.513336051E1","-5.168905567E0","1.780598083E1"
"1.147088487E1","8.395651712E0","-1.366195232E1","-4.613204621E0","1.744305241E1"
"1.148090388E1","8.410772918E0","-1.373633446E1","-3.719627793E0","1.603532716E1"
"1.149092388E1","8.769381608E0","-1.191431984E1","-3.291162501E0","1.446505281E1"
"1.150094387E1","8.136904481E0","-1.179024235E1","-2.928120738E0","1.689670455E1"
"1.151096287E1","8.423541412E0","-1.074731481E1","-2.222456762E0","1.598227551E1"
"1.152098288E1","8.444120499E0","-1.175958657E1","-1.574489095E0","1.359851916E1"
"1.153100288E1","8.692648380E0","-1.188345346E1","-1.316143954E0","1.445245330E1"
"1.154102187E1","9.166990316E0","-1.011143451E1","-1.474823376E0","1.404420041E1"
"1.155104187E1","6.967163367E0","-8.844318305E0","-1.641522903E0","1.129634538E1"
"1.156106188E1","6.821145985E0","-8.573923090E0","-2.018751046E0","1.216223534E1"
"1.157108188E1","7.098959290E0","-8.082768248E0","-2.106591138E0","1.166280601E1"
"1.158110087E1","7.573653343E0","-7.643392654E0","-2.115663883E0","1.016972471E1"
"1.159112087E1","7.103246165E0","-7.344690867E0","-1.792182043E0","9.810284477E0"
"1.160114088E1","7.470217272E0","-5.996274188E0","-1.906079290E0","8.340554895E0"
"1.161115987E1","6.862673732E0","-3.702155341E0","-1.784548534E0","8.235709580E0"
"1.162117987E1","6.847955639E0","-2.459194894E0","-9.144889590E-1","6.345132054E0"
"1.163119987E1","6.675246165E0","2.271984157E-2","1.895022017E-1","6.768046053E0"
"1.164121988E1","4.942884367E0","3.017046083E0","8.178663854E-1","5.791033066E0"
"1.165123887E1","2.927046403E0","6.046020149E0","2.343887385E0","7.746459192E0"
"1.166125887E1","-1.208096811E0","9.794589807E0","4.798078598E0","1.096415717E1"
"1.167127887E1","-1.356498874E1","1.152373979E1","8.358650773E0","1.848757037E1"
"1.168129788E1","-1.663022673E1","1.454629772E1","1.212628072E1","2.262716852E1"
"1.169131787E1","-2.497504998E1","1.744126332E1","1.358755932E1","3.449022731E1"
"1.170133787E1","-3.330424697E1","1.889129819E1","1.799262137E1","3.739521564E1"
"1.171135787E1","-3.954251953E1","1.754809560E1","1.734942989E1","4.650842171E1"
"1.172137688E1","-3.727236290E1","1.601161846E1","1.917648850E1","4.200055547E1"
"1.173139687E1","-2.953182718E1","1.097907554E1","1.717795704E1","4.016978178E1"
"1.174141687E1","-2.344699350E1","9.688973740E0","1.922183673E1","3.290365647E1"
"1.175143588E1","-1.557120258E1","6.804828804E0","1.971083716E1","2.729260174E1"
"1.176145588E1","-1.313622078E1","5.656471318E0","1.491152215E1","2.486767915E1"
"1.177147587E1","-1.428506986E1","4.082983310E0","1.169968889E1","1.440160074E1"
"1.178149487E1","-8.307690209E0","3.155639391E0","5.850913359E0","9.442115205E0"
"1.179151488E1","-4.725168309E0","2.271639092E0","1.008841984E0","5.592688609E0"
"1.180153488E1","-2.060311682E0","1.421233958E0","-3.501514008E0","3.882155255E0"
"1.181155487E1","2.803596454E-1","7.561220375E-1","-6.183865810E0","6.826985222E0"
"1.182157387E1","1.284102183E0","-4.306426960E-1","-7.953010302E0","8.389893292E0"
"1.183159388E1","2.107433545E0","-1.365850993E0","-1.046247805E1","9.659234921E0"
"1.184161388E1","2.494943882E0","-2.154381274E0","-1.049317396E1","1.085671601E1"
"1.185163287E1","3.686173520E0","-3.260245124E0","-9.228510384E0","1.128306914E1"
"1.186165287E1","4.357012561E0","-4.193631125E0","-7.898555042E0","1.124188086E1"
"1.187167288E1","4.702125575E0","-4.952513024E0","-7.989604081E0","1.032384192E1"
"1.188169288E1","4.748642710E0","-6.769505507E0","-7.459314285E0","1.265669194E1"
"1.189171187E1","5.777548438E0","-7.271011967E0","-6.660041533E0","1.100901958E1"
"1.190173188E1","5.148226916E0","-8.016677248E0","-6.457064348E0","9.872158606E0"
"1.191175188E1","4.137146482E0","-8.084168742E0","-5.895034227E0","1.103306226E1"
"1.192177087E1","3.131432578E0","-8.270950661E0","-3.737234705E0","9.890083172E0"
"1.193179087E1","2.491189622E0","-7.662951628E0","-2.097590904E0","8.530352156E0"
"1.194181088E1","2.235615972E0","-6.759966354E0","-5.474366233E-1","6.528201172E0"
"1.195182988E1","1.695083268E0","-5.418739356E0","1.371093524E0","6.576737928E0"
"1.196184987E1","1.008750307E0","-4.111545854E0","3.259621803E0","4.984340351E0"
"1.197186987E1","-5.927090961E-1","-2.267734375E0","4.084945056E0","4.753354897E0"
"1.198188988E1","-2.062518959E0","-5.757093931E-1","4.227479239E0","4.242805444E0"
"1.199190888E1","-2.583936110E0","1.025128711E0","3.661614852E0","5.148244495E0"
"1.200192887E1","-2.317606096E0","2.366496904E0","2.964742974E0","4.682143744E0"
"1.201194887E1","-1.171378629E0","3.558043709E0","2.573537409E0","4.759762989E0"
"1.202196788E1","1.059451144E-1","3.946955096E0","1.917914629E0","4.761027858E0"
"1.203198788E1","1.797383492E0","4.356818991E0","1.368948467E0","4.621243883E0"
"1.204200787E1","3.091451253E0","4.785407072E0","7.332745045E-1","5.410834286E0"
"1.205202688E1","5.654691836E0","4.011541654E0","-1.570580148E-1","6.946751620E0"
"1.206204688E1","7.045875368E0","3.911201503E0","-1.111402666E0","7.929787539E0"
"1.207206688E1","7.055065872E0","4.424346888E0","-2.280829038E0","9.836611317E0"
"1.208208687E1","7.533825114E0","4.424446157E0","-3.154120769E0","9.778319139E0"
"1.209210588E1","7.679215935E0","4.277479174E0","-3.801787280E0","8.950478259E0"
"1.210212588E1","6.174604318E0","5.739489249E0","-4.078086008E0","9.537732091E0"
"1.211214587E1","5.562608120E0","5.418156417E0","-4.278221590E0","1.003751971E1"
"1.212216487E1","5.158211746E0","6.127585540E0","-5.165085135E0","9.629057010E0"
"1.213218488E1","4.430218456E0","5.425627129E0","-4.066637473E0","1.046471663E1"
"1.214220488E1","4.663799516E0","6.312343792E0","-4.874031216E0","7.980820777E0"
"1.215222487E1","3.662241347E0","6.134012941E0","-2.502955968E0","7.142347630E0"
"1.216224387E1","3.422773922E0","6.161442403E0","-2.027899366E0","7.539931316E0"
"1.217226388E1","2.343354284E0","6.051288108E0","-1.646784169E0","6.641776721E0"
"1.218228388E1","1.552332927E0","5.736822658E0","-1.376018646E0","6.918725125E0"
"1.219230287E1","1.471415181E0","5.696469174E0","-1.322483861E0","5.618480331E0"
"1.220232287E1","8.469748005E-1","5.981385719E0","-7.623134438E-1","5.389524224E0"
"1.221234288E1","1.188135242E-1","4.808831834E0","1.012115405E0","4.919188469E0"
"1.222236187E1","1.101713665E-1","4.541862319E0","3.026077526E0","5.483239461E0"
"1.223238187E1","-8.480685538E-1","4.904779845E0","6.146820044E0","9.127827287E0"
"1.224240187E1","-3.677945349E0","6.313924543E0","1.217331265E1","1.549080248E1"
"1.225242188E1","-9.756561516E0","7.167696096E0","1.791162234E1","2.079871567E1"
"1.226244087E1","-1.975440554E1","9.381888726E0","2.439060500E1","3.221923555E1"
"1.227246087E1","-3.415792872E1","1.075737486E1","3.012724532E1","4.350896431E1"
"1.228248087E1","-3.730474865E1","1.158448266E1","2.772960055E1","5.600117959E1"
"1.229249988E1","-4.069453707E1","1.153716297E1","2.841640580E1","4.491564323E1"
"1.230251987E1","-3.721616389E1","7.858782806E0","2.480447136E1","4.286937167E1"
"1.231253987E1","-3.642586025E1","4.596453163E0","2.027816813E1","4.349852177E1"
"1.232255888E1","-2.976847210E1","1.323812707E0","2.535797804E1","3.456831379E1"
"1.233257888E1","-2.195361180E1","-1.262853153E0","1.601549188E1","3.138188280E1"
"1.234259887E1","-1.668650762E1","-3.342444677E0","1.126137429E1","2.136568923E1"
"1.235261887E1","-1.136837709E1","-5.604487891E0","7.748898784E0","1.871322302E1"
"1.236263788E1","-5.626161566E0","-6.369062560E0","3.605445342E0","8.831033216E0"
"1.237265788E1","-2.259786359E0","-5.625638462E0","-4.238223079E-1","5.621218557E0"
"1.238267787E1","-4.609217905E-1","-5.284879649E0","-4.619915526E0","7.568321719E0"
"1.239269687E1","2.001528459E-1","-6.557821750E0","-7.879325050E0","1.118541535E1"
"1.240271688E1","8.975701580E-1","-7.852962731E0","-9.592315895E0","1.295360237E1"
"1.241273688E1","1.558158051E0","-8.395546600E0","-1.156098141E1","1.330285425E1"
"1.242275587E1","2.039257612E0","-8.859718887E0","-1.172147675E1","1.437091731E1"
"1.243277587E1","2.291212709E0","-1.003226060E1","-1.300369792E1","1.658917180E1"
"1.244279588E1","3.531664245E0","-1.063269602E1","-1.571688023E1","1.998445958E1"
"1.245281546E1","4.256962889E0","-1.134615599E1","-1.610149464E1","2.031939070E1"
"1.246283446E1","5.125242399E0","-1.323232327E1","-2.484134479E1","2.036957294E1"
"1.247285446E1","6.164104471E0","-1.362578775E1","-1.561965529E1","2.012787248E1"
"1.248287446E1","6.514285356E0","-1.441418799E1","-1.587822864E1","2.172901221E1"
"1.249289346E1","8.453091355E0","-1.251652347E1","-1.602517171E1","2.269692320E1"
"1.250291346E1","8.911458708E0","-1.929510803E1","-1.559126797E1","2.019160233E1"
"1.251293346E1","7.879726641E0","-1.268219413E1","-1.327195450E1","2.164323081E1"
"1.252295246E1","8.165656905E0","-1.483992920E1","-1.186899426E1","1.875652606E1"
"1.253297246E1","6.897371272E0","-1.336495573E1","-1.195164566E1","2.090213422E1"
"1.254299246E1","6.870442904E0","-1.194468337E1","-1.149586966E1","1.774185086E1"
"1.255301246E1","5.385038528E0","-1.094709064E1","-9.455234393E0","1.791349021E1"
"1.256303146E1","5.100425082E0","-1.045168808E1","-9.343350070E0","1.472537440E1"
"1.257305146E1","4.318590546E0","-9.089464302E0","-1.009669805E1","1.458992673E1"
"1.258307146E1","4.506112980E0","-8.663565658E0","-9.120246799E0","1.303749165E1"
"1.259309046E1","4.850696798E0","-8.665267674E0","-1.044286020E1","1.306551859E1"
"1.260311046E1","6.298751505E0","-6.746521632E0","-1.043672218E1","1.278130345E1"
"1.261313046E1","5.810991244E0","-7.442136933E0","-9.742888466E0","1.495702020E1"
"1.262314946E1","8.220948461E0","-6.537573870E0","-1.067958736E1","1.526121511E1"
"1.263316946E1","8.493218879E0","-5.448027951E0","-9.085010568E0","1.457407719E1"
"1.264318946E1","7.688623074E0","-5.132256689E0","-8.340900335E0","1.354995960E1"
"1.265320846E1","7.831271749E0","-4.454675440E0","-8.282010496E0","1.283904429E1"
"1.266322846E1","7.791144865E0","-3.604821758E0","-6.011330682E0","1.128430626E1"
"1.267324846E1","5.753074966E0","-2.434018556E0","-4.556950272E0","8.993934674E0"
"1.268326846E1","4.604011646E0","-1.779038372E0","-3.600586469E0","5.824806826E0"
"1.269328746E1","3.953612244E0","-1.456913034E0","-2.593770725E0","4.973205522E0"
"1.270330746E1","2.876759447E0","-7.574293285E-1","-2.921022405E0","4.083439573E0"
"1.271332746E1","2.636001991E0","-2.290230433E-1","-3.030253599E0","4.084091158E0"
"1.272334646E1","1.967219201E0","6.187728396E-1","-2.617532365E0","3.254309379E0"
"1.273336646E1","1.775352124E0","1.107129192E0","-7.965488684E-1","2.183621200E0"
"1.274338646E1","3.052213282E0","1.466849023E0","2.179137022E0","4.357800780E0"
"1.275340546E1","6.160022397E0","2.702319181E0","5.404953505E0","9.366621077E0"
"1.276342546E1","7.739419064E0","4.188901960E0","6.620874120E0","1.259353511E1"
"1.277344546E1","7.730317786E0","4.502388582E0","8.974606363E0","1.284348330E1"
"1.278346546E1","4.876496496E0","4.844940884E0","1.473022890E1","1.395205020E1"
"1.279348446E1","-8.884559385E-1","2.366023863E0","1.698223119E1","1.547242866E1"
"1.280350446E1","-3.892905966E0","3.178269595E-1","1.839682600E1","1.793089580E1"
"1.281352446E1","-5.796086441E0","-1.036915399E0","1.993686368E1","2.029704780E1"
"1.282354346E1","-6.885755210E0","-3.136474284E0","2.262621895E1","2.201938564E1"
"1.283356346E1","-5.012474560E0","-3.574636100E0","1.918388017E1","1.995317217E1"
"1.284358346E1","-3.591751056E0","-1.903140823E0","1.988329812E1","1.932146976E1"
"1.285360246E1","-2.895157609E0","-8.762520393E-1","1.742335890E1","1.996284960E1"
"1.286362246E1","-2.179234352E0","1.679037058E-1","1.352985278E1","1.379056817E1"
"1.287364246E1","-1.570061081E0","1.264895780E0","1.271474052E1","1.270866237E1"
"1.288366246E1","-1.738798319E0","2.142865929E0","9.914767036E0","9.458209043E0"
"1.289368146E1","-2.508153236E0","2.518850751E0","6.365205741E0","7.864934301E0"
"1.290370146E1","-4.090833460E0","3.570073747E0","6.558134837E0","6.664865973E0"
"1.291372146E1","-5.405016215E0","3.737304692E0","1.426969543E0","6.555455017E0"
"1.292374046E1","-6.088879005E0","3.558037821E0","-1.234693546E0","6.334269225E0"
"1.293376046E1","-5.229763796E0","2.720605745E0","-3.166433498E0","6.138540160E0"
"1.294378046E1","-3.107792936E0","2.329540188E0","-3.215255907E0","4.864495069E0"
"1.295379946E1","-7.880973618E-1","1.278047100E0","-3.018580720E0","3.041170527E0"
"1.296381946E1","9.613499971E-1","3.983210417E-1","-2.448120546E0","2.128431098E0"
"1.297383946E1","1.864038116E0","-6.784110181E-2","-1.069665929E0","2.252451079E0"
"1.298385846E1","2.874411293E0","9.593757241E-2","-7.979140885E-1","2.203881823E0"
"1.299387846E1","1.623640917E0","2.224052497E-1","-1.134886098E0","1.791511040E0"
"1.300389846E1","1.414786919E0","4.246240817E-1","-2.194655651E0","2.287726378E0"
"1.301391846E1","8.678567940E-1","5.204415280E-1","-3.457246838E0","2.871240821E0"
"1.302393746E1","5.193430602E-1","4.526307059E-1","-3.190384103E0","3.450730815E0"
"1.303395746E1","9.564869542E-1","4.850175490E-1","-4.020250756E0","4.396030748E0"
"1.304397746E1","1.421223325E0","4.501922387E-1","-4.014373369E0","5.456476925E0"
"1.305399646E1","1.569275780E0","5.926787810E-1","-4.000020239E0","4.812912283E0"
"1.306401646E1","1.304889847E0","6.452695085E-1","-2.978211189E0","3.489394918E0"
"1.307403646E1","1.242319688E0","6.118457766E-1","-1.653412875E0","2.257821625E0"
"1.308405546E1","4.015366485E-1","5.073442090E-1","-3.119581702E-1","6.768126431E-1"
"1.309407546E1","-5.789692727E-1","5.484554396E-1","7.069939157E-1","1.374276103E0"
"1.310409546E1","-8.466110845E-1","6.859452913E-1","9.367362231E-1","1.556210935E0"
"1.311411546E1","-4.609243675E-1","6.350315365E-1","5.289243391E-1","1.037742445E0"
"1.312413446E1","-1.699689092E-1","3.880814593E-1","-4.877844169E-2","4.432006923E-1"
"1.313415446E1","3.445803860E-1","3.264731507E-1","-2.897290769E-1","5.112263282E-1"
"1.314417446E1","5.426999421E-1","1.111772006E-1","-7.066769481E-1","9.870792120E-1"
"1.315419346E1","9.863409683E-1","1.757850903E-1","-1.088034692E0","1.491272220E0"
"1.316421346E1","1.034596969E0","9.326046396E-2","-1.581381593E0","2.153556820E0"
"1.317423346E1","1.066618895E0","2.372774299E-1","-1.608051088E0","2.232518722E0"
"1.318425246E1","9.836388065E-1","2.011757042E-1","-1.627652624E0","1.923468932E0"
"1.319427246E1","6.521380512E-1","4.098035804E-1","-1.624365677E0","1.551124580E0"
"1.320429246E1","5.711098749E-1","4.896318781E-1","-1.615982263E0","1.852350844E0"
"1.321431146E1","9.710181104E-1","4.961840476E-1","-2.621565138E0","2.952447806E0"
"1.322433146E1","1.417162808E0","2.625624404E-1","-3.051331070E0","3.422005641E0"
"1.323435146E1","1.938827233E0","-1.397544293E-1","-3.523064115E0","3.620491789E0"
"1.324437146E1","2.529010434E0","-2.330952888E-1","-3.714796411E0","4.560175230E0"
"1.325439046E1","2.312089290E0","-4.190488384E-1","-4.151338633E0","4.718558922E0"
"1.326441046E1","1.874009023E0","-2.642979107E-1","-4.344679904E0","4.942213479E0"
"1.327443046E1","1.522886396E0","-1.123768884E-1","-4.246420920E0","4.881310100E0"
"1.328444946E1","9.233277276E-1","-1.907034957E-1","-4.819823524E0","4.616998495E0"
"1.329446946E1","3.606402591E-1","3.161968999E-1","-5.269202297E0","5.330612005E0"
"1.330448946E1","4.239581984E-2","7.598026635E-1","-6.335659922E0","4.742640191E0"
"1.331450846E1","2.227803901E-1","9.221678670E-1","-4.178576593E0","4.683772564E0"
"1.332452846E1","6.007802656E-1","6.760292175E-1","-2.975075840E0","3.573248750E0"
"1.333454846E1","9.889332475E-1","4.259630905E-1","-1.971543326E0","2.337115967E0"
"1.334456746E1","1.347790122E0","-2.277378713E-1","-1.040086660E0","1.887072727E0"
"1.335458746E1","1.822434490E0","-3.190674000E-1","1.143514317E-1","1.854589302E0"
"1.336460746E1","1.771642518E0","3.790621224E-1","1.935940978E0","2.581431830E0"
"1.337462646E1","1.300869925E-1","2.066057726E0","4.854790715E0","5.620215150E0"
"1.338464646E1","-3.639537278E0","4.355259970E0","1.034231644E1","1.273402262E1"
"1.339466646E1","-7.652996868E0","3.916601109E0","1.839602284E1","2.054834255E1"
"1.340468646E1","-1.181998717E1","3.805798842E0","2.289424239E1","3.037191361E1"
"1.341470546E1","-1.093900249E1","3.367358972E0","2.895955950E1","3.271461064E1"
"1.342472546E1","-1.181236013E1","2.385797183E0","3.661410947E1","3.398220085E1"
"1.343474546E1","-1.057887733E1","2.230027145E0","3.318287110E1","3.338636993E1"
"1.344476446E1","-9.137885615E0","2.645148116E0","2.946079882E1","2.960285127E1"
"1.345478496E1","-7.214166312E0","4.116923077E0","2.364947982E1","2.699238881E1"
"1.346480496E1","-4.924713817E0","4.398124809E0","2.060261758E1","2.249472372E1"
"1.347482396E1","-3.489059158E0","4.418094587E0","1.347127655E1","1.416190274E1"
"1.348484396E1","-1.993735070E0","4.058813812E0","8.096521429E0","1.102130587E1"
"1.349486396E1","-7.973825401E-1","4.866361015E0","5.267961582E0","6.759549258E0"
"1.350488396E1","2.426052963E-1","2.733412109E0","1.341246811E0","2.537213949E0"
"1.351490296E1","6.921661111E-1","1.228983767E0","-2.618723717E0","2.856860665E0"
"1.352492296E1","1.174714221E0","-1.001102773E-1","-6.733082268E0","6.232009799E0"
"1.353494296E1","2.701926909E0","-1.249559769E0","-8.846679960E0","1.035811799E1"
"1.354496196E1","2.662481372E0","-2.129826725E0","-9.993602442E0","1.066587511E1"
"1.355498196E1","2.686208247E0","-3.390833921E0","-1.236993067E1","1.234151160E1"
"1.356500196E1","2.932593488E0","-4.478065987E0","-1.159958995E1","1.323626236E1"
"1.357502096E1","2.903422850E0","-4.555851839E0","-1.437190509E1","1.388056657E1"
"1.358504096E1","2.575478981E0","-5.314179260E0","-1.328318215E1","1.465690186E1"
"1.359506096E1","2.671665261E0","-5.004974367E0","-1.535521217E1","1.736528914E1"
"1.360507996E1","3.102077632E0","-4.823833278E0","-1.542495892E1","1.545501246E1"
"1.361509996E1","4.826722778E0","-5.668014270E0","-1.166130235E1","1.577741829E1"
"1.362511996E1","4.218801902E0","-4.888453832E0","-1.200368823E1","1.313757000E1"
"1.363513896E1","4.305433875E0","-5.618197916E0","-9.542653709E0","1.269337895E1"
"1.364515896E1","3.604307625E0","-4.847176308E0","-9.725736970E0","1.207946149E1"
"1.365517896E1","3.386990457E0","-5.519441292E0","-9.572644839E0","1.071537508E1"
"1.366519896E1","3.108756084E0","-5.350032350E0","-8.928120539E0","1.194855049E1"
"1.367521796E1","3.188511777E0","-5.161171602E0","-8.328827859E0","1.136187120E1"
"1.368523796E1","2.899959295E0","-5.186274116E0","-8.478211383E0","1.028844856E1"
"1.369525796E1","3.267493337E0","-4.489465858E0","-7.721461771E0","1.000280588E1"
"1.370527696E1","3.066289558E0","-4.596748565E0","-7.746548958E0","9.837597169E0"
"1.371529696E1","3.445830775E0","-4.637531757E0","-7.549548988E0","1.012064776E1"
"1.372531696E1","4.107279556E0","-3.937711285E0","-8.233910591E0","9.898257540E0"
"1.373533596E1","4.395292880E0","-4.671589301E0","-6.930731430E0","1.021771707E1"
"1.374535596E1","4.173616718E0","-4.420180395E0","-7.869888267E0","9.751680694E0"
"1.375537596E1","4.113941848E0","-3.618753610E0","-8.634260215E0","9.488677712E0"
"1.376539496E1","4.309314924E0","-4.384261013E0","-9.592759645E0","1.107285866E1"
"1.377541496E1","3.549676803E0","-3.995125015E0","-9.611659308E0","9.481909691E0"
"1.378543496E1","3.145735622E0","-2.390959181E0","-1.227796334E1","1.061049952E1"
"1.379545396E1","2.853606865E0","-2.490199082E0","-8.282565418E0","9.111884001E0"
"1.380547396E1","2.783591183E0","-2.243356191E0","-7.374577483E0","8.464005607E0"
"1.381549396E1","2.111009186E0","-2.121652067E0","-6.144927715E0","7.304099545E0"
"1.382551396E1","2.256386542E0","-2.916314533E0","-5.320583795E0","7.598837210E0"
"1.383553296E1","2.312542228E0","-2.320132012E0","-4.711470291E0","6.276085400E0"
"1.384555296E1","2.497268298E0","-1.792013875E0","-4.324805469E0","5.073375413E0"
"1.385557296E1","1.859052652E0","-1.351308364E0","-2.970786017E0","3.777545577E0"
"1.386559196E1","1.671919178E0","-8.380973766E-2","-1.709312439E0","2.609189378E0"
"1.387561196E1","1.617702638E0","1.392171393E0","-7.131584434E-1","2.111216922E0"
"1.388563196E1","1.517163925E0","2.730263549E0","1.386365549E-1","3.100572448E0"
"1.389565096E1","1.700471049E0","3.559938243E0","1.617789138E0","3.996873544E0"
"1.390567096E1","1.659336467E0","3.460968316E0","3.634890064E0","5.166154871E0"
"1.391569096E1","3.448423705E-1","2.534688224E0","6.555715545E0","7.193431122E0"
"1.392570996E1","-1.668587222E0","1.545203306E0","1.112562331E1","1.114495362E1"
"1.393572996E1","-3.208287201E0","6.568709302E-1","1.544372931E1","1.301809644E1"
"1.394574996E1","-3.414678472E0","1.873168111E-1","1.654541423E1","1.614634417E1"
"1.395576896E1","-3.070501401E0","-6.741290523E-1","1.773210976E1","1.724921410E1"
"1.396578896E1","-2.667432296E0","-1.203753657E0","1.638853752E1","1.749937541E1"
"1.397580896E1","-2.332223427E0","-1.000044159E0","1.830129612E1","1.958807183E1"
"1.398582896E1","-2.486769696E0","-2.269302083E-1","1.556838636E1","1.737415863E1"
"1.399584796E1","-2.779022440E0","7.109002474E-1","1.254450054E1","1.440042000E1"
"1.400586796E1","-3.479525446E0","1.600991998E0","9.917827582E0","9.781769155E0"
"1.401588796E1","-3.677524746E0","2.784684547E0","5.892330729E0","7.252474251E0"
"1.402590696E1","-3.465943242E0","3.134033878E0","3.705541127E0","5.934252784E0"
"1.403592696E1","-3.455710206E0","3.028536250E0","1.418470686E0","5.660061877E0"
"1.404594696E1","-3.265740996E0","3.024242193E0","1.337623215E-1","4.702289064E0"
"1.405596596E1","-2.858382647E0","2.702393543E0","-9.942638417E-1","4.195280827E0"
"1.406598596E1","-2.101701949E0","1.756669552E0","-2.001719255E0","3.032841377E0"
"1.407600596E1","-9.343270652E-1","1.235460736E0","-2.992272046E0","3.265274840E0"
"1.408602496E1","-1.813945507E-1","7.740338861E-1","-3.549320950E0","3.371918969E0"
"1.409604496E1","3.048064214E-1","3.981118176E-1","-3.808401602E0","4.005531485E0"
"1.410606496E1","4.065217492E-1","2.653580733E-1","-4.759512183E0","5.128696229E0"
"1.411608396E1","-1.448082692E-1","2.570326076E-1","-5.538217098E0","4.750725723E0"
"1.412610396E1","-5.264124240E-1","-1.327734206E-1","-5.183821691E0","5.351668801E0"
"1.413612396E1","-7.405316692E-1","-3.303595369E-1","-6.475891857E0","5.563950750E0"
"1.414614396E1","-7.820015838E-1","-7.984709891E-1","-5.936885833E0","6.298032746E0"
"1.415616296E1","-9.998486612E-1","-1.807348237E0","-6.142805811E0","5.832433088E0"
"1.416618296E1","-1.205236677E0","-2.799633722E0","-5.538052647E0","6.591293551E0"
"1.417620296E1","-7.504944459E-1","-2.745358812E0","-5.456709227E0","6.483189455E0"
"1.418622196E1","-3.750450765E-1","-3.400741015E0","-4.771455138E0","5.462110409E0"
"1.419624196E1","2.024896305E-1","-3.553406063E0","-3.851913597E0","4.546222827E0"
"1.420626196E1","1.840504984E-1","-3.730738893E0","-2.502060391E0","4.351266971E0"
"1.421628096E1","2.706726377E-1","-4.026939578E0","-8.245309289E-1","4.372906609E0"
"1.422630096E1","1.405532396E-1","-3.869620604E0","5.331821530E-1","4.459945744E0"
"1.423632096E1","5.111044892E-2","-3.722794092E0","2.037650640E0","4.444321489E0"
"1.424633996E1","-1.328055024E-1","-3.294946762E0","3.628712152E0","4.899011931E0"
"1.425635996E1","2.483761559E-1","-2.786820637E0","4.864014934E0","4.876470116E0"
"1.426637996E1","1.695164890E-1","-1.575746506E0","4.924379803E0","5.765509252E0"
"1.427639896E1","-1.690849533E-1","-8.004550490E-1","6.073455738E0","6.112424656E0"
"1.428641896E1","2.562728608E-1","7.127378421E-2","5.295299052E0","5.548403554E0"
"1.429643896E1","9.153739225E-1","1.019417512E0","4.110008697E0","4.989757969E0"
"1.430645796E1","1.642134894E0","1.701527827E0","2.937271246E0","4.202429521E0"
"1.431647796E1","2.989904821E0","2.022733645E0","1.801774938E0","4.052438306E0"
"1.432649796E1","4.230287714E0","2.430277538E0","3.220010205E-1","5.131359175E0"
"1.433651796E1","6.003176249E0","3.157055420E0","-7.121643763E-1","6.142164646E0"
"1.434653696E1","7.709369040E0","2.826007759E0","-1.538890879E0","8.304953273E0"
"1.435655696E1","8.304707841E0","1.954007121E0","-2.002313024E0","9.383122118E0"
"1.436657696E1","9.039152514E0","1.881772711E0","-2.463444959E0","1.058083198E1"
"1.437659596E1","9.857228223E0","2.036287396E0","-2.353342702E0","1.002609388E1"
"1.438661596E1","9.414882906E0","1.265117029E0","-2.525129391E0","9.183827017E0"
"1.439663596E1","8.925749225E0","1.001343902E0","-2.083262025E0","9.024276645E0"
"1.440665496E1","9.010442436E0","1.056718545E0","-1.860855715E0","1.016231567E1"
"1.441667496E1","8.704625814E0","1.257617772E0","-1.875311033E0","9.968757419E0"
"1.442669496E1","7.915935769E0","1.502107078E0","-1.612761053E0","8.915333086E0"
"1.443671396E1","6.829570443E0","2.603059092E0","-1.379922364E0","7.654210678E0"
"1.444673396E1","4.621194037E0","3.434703887E0","-1.030573211E0","6.344374524E0"
"1.445675333E1","2.920011698E0","5.185499695E0","-2.023366792E-1","5.724102129E0"
"1.446677233E1","4.291561626E-1","5.989071037E0","5.976275362E-1","6.089544290E0"
"1.447679233E1","-8.775271533E-1","7.000913497E0","1.459760378E0","6.422933011E0"
"1.448681233E1","-2.016417569E0","8.300247639E0","3.444153468E0","9.985464021E0"
"1.449683133E1","-4.184251933E0","1.110840341E1","5.750707595E0","1.214032838E1"
"1.450685133E1","-7.285892256E0","1.263376216E1","7.750168866E0","1.673562162E1"
"1.451687133E1","-1.486953643E1","1.591971382E1","8.578404152E0","2.557772106E1"
"1.452689033E1","-2.382008833E1","1.928841619E1","1.003506964E1","3.480056804E1"
"1.453691033E1","-3.656324038E1","2.259020560E1","1.306578187E1","4.610492992E1"
"1.454693033E1","-5.971225645E1","2.201810980E1","1.406459305E1","6.225929552E1"
"1.455695033E1","-6.460191141E1","2.277819896E1","1.349551702E1","6.510804219E1"
"1.456696933E1","-6.336222720E1","2.277553513E1","1.235551450E1","6.618803807E1"
"1.457698933E1","-4.882709973E1","1.522989833E1","7.909410568E0","4.359040583E1"
"1.458700933E1","-3.379537480E1","6.785990530E0","4.495579811E0","3.536201214E1"
