"Time (s)","Linear Acceleration x (m/s^2)","Linear Acceleration y (m/s^2)","Linear Acceleration z (m/s^2)","Absolute acceleration (m/s^2)"
7.689958322E-3,1.994267158E0,7.086600253E0,-3.608270001E0,8.198574086E0
1.770695834E-2,4.678924423E0,6.927223281E0,-1.740396842E0,8.538602773E0
2.772295836E-2,5.279694257E0,7.075797522E0,4.327500916E-1,8.839081098E0
3.773995832E-2,5.118168433E0,6.675334001E0,1.067759466E0,8.479141608E0
4.775695835E-2,2.512760820E0,3.978499909E0,7.485839367E-1,4.764746202E0
5.777295836E-2,-4.609178835E-1,-1.397472847E-1,-5.654678535E-1,7.427842838E-1
6.778995832E-2,-3.085351751E0,-4.285305068E0,-3.140857615E0,6.143958131E0
7.780595834E-2,-4.404505237E0,-6.235086610E0,-4.843237031E0,9.040625883E0
8.782295836E-2,-4.101887269E0,-6.120199347E0,-4.208308933E0,8.484820758E0
9.783995833E-2,-2.904713134E0,-6.153481699E0,-2.642515798E0,7.299697606E0
1.078559583E-1,-1.625064021E-1,-4.604777051E0,-3.610819387E-1,4.621770244E0
1.178729584E-1,2.005733255E0,-9.345476139E-1,2.537353624E0,3.366676187E0
1.278899583E-1,3.010149541E0,3.795246416E-1,5.527860614E0,6.305734072E0
1.379059583E-1,2.824584937E0,1.134095542E0,5.458948839E0,6.250166013E0
1.479229583E-1,1.584393713E0,1.298328043E0,1.246981888E0,2.398108207E0
1.579399583E-1,8.671523139E-1,-7.119382668E-1,-1.080143284E0,1.557407700E0
1.679559583E-1,1.059559915E0,-1.528807157E0,-6.561359489E-1,1.972418039E0
1.779729583E-1,3.436999208E-1,9.169182587E-1,4.016709709E-1,1.058398931E0
1.879889583E-1,5.770149350E-2,4.445787165E0,7.195074874E-1,4.504003108E0
1.980059583E-1,-1.577271804E-1,6.600504259E0,1.562335092E-1,6.604236765E0
2.080229583E-1,1.122622282E-1,7.780531434E0,-6.704242051E-1,7.810169065E0
2.180389583E-1,4.438052029E-1,7.654960139E0,-1.814592161E0,7.879601672E0
2.280559583E-1,3.273114909E-1,6.951784510E0,-2.699046679E0,7.464535730E0
2.380729583E-1,-2.354740986E-1,6.866926208E0,-2.546137896E0,7.327546778E0
2.480889583E-1,-2.672919601E-1,6.431794546E0,-2.940717949E0,7.077234497E0
2.581059583E-1,2.498373819E-1,4.405854775E0,-8.229468373E0,9.337993613E0
2.681229583E-1,7.810060166E-1,2.207720935E0,-1.803005903E1,1.818150244E1
2.781389583E-1,1.419699283E0,3.327132949E0,-9.388229225E0,1.006102419E1
2.881559583E-1,6.414265470E-1,-1.471549584E1,-4.306084903E0,1.534599665E1
2.981719584E-1,-1.058970399E1,-4.127724946E1,1.325670208E0,4.263461686E1
3.081889583E-1,-1.801439317E1,-4.553437328E1,1.077090335E1,5.013890576E1
3.182059583E-1,-1.245593408E1,-3.878217705E1,1.204561274E1,4.247710367E1
3.282219583E-1,-3.557944186E0,-1.944766150E1,3.164916569E0,2.002216776E1
3.382389583E-1,-4.433446616E-2,-6.343799797E0,5.320428300E-1,6.366225804E0
3.482559583E-1,1.316598106E0,-2.024674433E-1,7.084471866E-1,1.508748175E0
3.582719583E-1,3.842251014E0,1.999986904E0,1.300345917E0,4.522581118E0
3.682889583E-1,4.849397365E0,2.824307486E0,3.252199419E0,6.486152067E0
3.783059584E-1,3.056274425E0,2.653191644E0,-1.073318121E0,4.187153096E0
3.883219583E-1,7.799465011E-1,8.445677358E-1,7.315738016E-1,1.362648683E0
3.983389583E-1,2.229560870E0,3.829212892E-1,4.007438656E0,4.601862120E0
4.083549583E-1,1.944568748E0,1.161789125E0,4.849006771E0,5.352006002E0
4.183719583E-1,3.172194891E-1,1.491759199E0,5.152415575E0,5.373393710E0
4.283889583E-1,3.014166579E-3,1.915682918E0,4.507782561E0,4.897954037E0
4.384049583E-1,-5.201659656E-1,2.081649118E0,4.367218713E0,4.865843705E0
4.484219583E-1,-1.099579575E0,2.216522748E0,3.405678305E0,4.209595355E0
4.584389583E-1,-1.022575326E0,3.074706311E0,2.194199833E0,3.913309610E0
4.684549583E-1,-1.341238127E0,3.807606261E0,1.591731969E0,4.339400398E0
4.784719583E-1,-2.297921838E0,4.390989398E0,1.309236608E0,5.125947050E0
4.884889583E-1,-2.558717304E0,5.212009227E0,1.661996497E0,6.039396227E0
4.985049583E-1,-2.954377044E0,5.898588704E0,3.092319294E0,7.285885742E0
5.085219583E-1,-2.879614253E0,5.948597016E0,4.789172505E0,8.161749689E0
5.185389583E-1,-2.750476741E0,5.609176673E0,5.163199595E0,8.104727960E0
5.285549583E-1,-2.435400841E0,4.975686990E0,4.696112899E0,7.262376652E0
5.385719583E-1,-2.029669125E0,4.059608392E0,4.191739385E0,6.178240536E0
5.485879583E-1,-3.724528728E-1,3.613841228E0,3.638272650E0,5.141555936E0
5.586049584E-1,1.266319653E0,3.548245409E0,2.874964254E0,4.739095949E0
5.686219583E-1,2.191275495E0,2.644801474E0,2.063039477E0,4.006593942E0
5.786379583E-1,2.799077920E0,1.824381570E0,1.096162316E0,3.516358505E0
5.886549584E-1,3.465752306E0,9.420074916E-1,-5.755314964E-1,3.637314073E0
5.986719583E-1,4.276163532E0,-3.526444066E-1,-2.891155195E0,5.173848759E0
6.086879583E-1,4.516414513E0,-2.135016655E0,-4.787630010E0,6.919371162E0
6.187049584E-1,3.920201122E0,-3.418198655E0,-4.835252658E0,7.101529916E0
6.287219583E-1,3.266065506E0,-2.818936234E0,-3.754582832E0,5.719307443E0
6.387379583E-1,2.368909667E0,-1.312528006E0,-2.671691650E0,3.804260644E0
6.487549584E-1,1.128629492E0,-5.909365708E-1,-1.812411734E0,2.215366077E0
6.587709583E-1,8.524016161E-1,3.073232228E-1,-1.230409124E0,1.528051927E0
6.687879583E-1,5.275570654E-1,8.138815480E-1,-1.091112660E0,1.459878923E0
6.788049584E-1,3.542411350E-1,5.121722370E-1,-1.925084072E0,2.023303206E0
6.888209583E-1,1.835485944E-1,-3.077155709E-1,-2.670779484E0,2.694706294E0
6.988379583E-1,-2.317896584E-1,-1.157559249E0,-3.008065886E0,3.231428513E0
7.088549584E-1,-4.935695397E-1,-1.300786212E0,-3.082692438E0,3.382107084E0
7.188709583E-1,-4.939766521E-1,-7.464935571E-1,-2.934233971E0,3.067734435E0
7.288879583E-1,-4.236820833E-1,1.468528211E-1,-2.159671440E0,2.205731849E0
7.389049584E-1,-2.741814237E-1,1.702212185E0,-1.366680239E0,2.200117418E0
7.489209583E-1,-2.329766797E-1,2.657786386E0,-9.571839398E-1,2.834485439E0
7.589379583E-1,-7.537614269E-1,2.228955098E0,-1.584440491E-1,2.358283621E0
7.689549584E-1,-1.637320370E0,9.160546249E-1,2.217347791E0,2.904583498E0
7.789709583E-1,-3.161182829E0,-9.282449001E-1,3.478995372E0,4.791463688E0
7.889879583E-1,-4.361776417E0,-3.347188899E0,2.499520092E0,6.039566849E0
7.990039584E-1,-4.079323449E0,-5.722667035E0,-1.498588747E-1,7.029385142E0
8.090209583E-1,-2.081647949E0,-6.195943009E0,-7.860447085E-1,6.583375596E0
8.190379583E-1,-1.429661184E0,-5.499505711E0,-1.766555530E0,5.950564058E0
8.290539584E-1,-2.745336161E0,-3.880332175E0,-6.324482936E-1,4.795189180E0
8.390709583E-1,-3.740629914E0,9.875561321E-1,2.563421681E0,4.640981575E0
8.490879583E-1,-4.744437797E0,5.334630017E0,4.326872047E0,8.348041036E0
8.591039584E-1,-5.846716885E0,6.363646417E0,2.690971089E0,9.051045213E0
8.691209583E-1,-6.893366733E0,4.844775433E0,1.275436486E0,8.521566296E0
8.791379583E-1,-6.601829823E0,2.744352075E0,4.068181287E0,8.225917839E0
8.891539584E-1,-4.433583441E0,8.487414783E-1,6.805580145E0,8.166574884E0
8.991709583E-1,-2.785924024E0,-8.718830037E-1,7.056364886E0,7.636349785E0
9.091880833E-1,-1.849167624E0,-1.701769550E0,6.044222381E0,6.545843315E0
9.192040833E-1,-1.427826035E0,-1.746290835E0,4.718368863E0,5.229839730E0
9.292210834E-1,-1.381054157E0,-1.131678888E0,4.004583753E0,4.384597898E0
9.392370833E-1,-1.345764603E0,-5.980514628E-1,3.712501298E0,3.993922108E0
9.492540833E-1,-1.235106047E0,-5.258751869E-1,3.646212584E0,3.885472669E0
9.592710834E-1,-9.699908039E-1,-5.656210506E-1,3.367019731E0,3.549314187E0
9.692870833E-1,-8.684155317E-1,-9.037444818E-1,3.120998132E0,3.363261656E0
9.793040833E-1,-7.506156980E-1,-9.432313138E-1,3.065113953E0,3.293635193E0
9.893210834E-1,-5.499045389E-1,-9.597695786E-1,2.990833265E0,3.188829921E0
9.993370833E-1,7.540496215E-2,-1.275292352E0,2.853995554E0,3.126874976E0
1.009354083E0,1.017930079E0,-1.573048945E0,2.588551844E0,3.195507046E0
1.019371083E0,1.630367154E0,-1.466569394E0,3.428443269E-1,2.219564163E0
1.029387083E0,1.526333639E0,-1.240504342E0,-4.152308102E-1,2.010214423E0
1.039404083E0,6.593013391E-1,-1.704242338E0,2.725396571E0,3.281296493E0
1.049420083E0,9.817063583E-1,-1.561452162E0,2.199094537E0,2.870173691E0
1.059437083E0,1.331874250E0,-3.940982419E-1,4.048460090E-1,1.446755934E0
1.069454083E0,1.163319707E0,1.248713833E-1,-1.187011675E0,1.666704029E0
1.079470083E0,1.123868470E0,7.278526336E-1,-3.194224568E0,3.463512723E0
1.089487083E0,1.439629810E0,1.097638153E0,-3.373466286E0,3.828526908E0
1.099504083E0,1.842754837E0,1.077611439E0,-1.957256622E0,2.896177703E0
1.109520083E0,2.384658850E0,1.344513445E0,-1.049869325E0,2.931985647E0
1.119537083E0,2.931415321E0,1.628604510E0,-7.983373100E-1,3.447156929E0
1.129554083E0,3.366630891E0,1.687462583E0,-5.888392476E-1,3.811622382E0
1.139570083E0,3.884078486E0,1.557207084E0,-4.437581328E-1,4.208073296E0
1.149587083E0,4.256103196E0,1.633755907E0,-6.623298313E-1,4.606761725E0
1.159604083E0,3.849495421E0,1.767668256E0,-9.148992151E-1,4.333625115E0
1.169620083E0,2.957293343E0,1.666599718E0,-9.553395818E-1,3.526444704E0
1.179637083E0,1.631723561E0,1.135434555E0,-7.546093462E-1,2.126303994E0
1.189653083E0,1.018102352E0,6.967431074E-1,-5.533288877E-1,1.352093272E0
1.199670083E0,9.780984800E-1,6.309221703E-1,-6.036611353E-1,1.311162152E0
1.209687083E0,8.697136136E-1,7.314445782E-1,-7.622583814E-1,1.368375234E0
1.219703083E0,1.256448238E0,7.771598643E-1,-1.249189358E0,1.934712816E0
1.229720083E0,8.554072311E-1,3.961564618E-1,-1.992988957E0,2.204691918E0
1.239737083E0,6.477948958E-1,7.019740266E-1,-2.591485392E0,2.761920039E0
1.249753083E0,7.743071540E-1,8.735477060E-1,-2.595277897E0,2.845716873E0
1.259770083E0,1.073468321E0,7.243454736E-1,-2.257613472E0,2.602658101E0
1.269787083E0,1.104816926E0,2.924683714E-1,-2.060590956E0,2.356309248E0
1.279803083E0,1.538622147E0,-1.574532384E-1,-2.117673814E0,2.622344755E0
1.289820083E0,1.893888007E0,-3.790627116E-1,-2.103246394E0,2.855546483E0
1.299836083E0,2.056087576E0,-7.005133921E-1,-1.880903241E0,2.873327711E0
1.309853083E0,2.253016683E0,-1.171671504E0,-1.533666193E0,2.966653044E0
1.319870083E0,2.203666183E0,-1.676034200E0,-1.538908953E0,3.167566267E0
1.329886083E0,2.409762701E0,-1.780742045E0,-2.008883735E0,3.607438477E0
1.339903083E0,2.717072767E0,-1.781544868E0,-2.614560844E0,4.170409446E0
1.349920083E0,3.188675268E0,-2.072227499E0,-3.135399824E0,4.928743129E0
1.359936083E0,3.490669631E0,-2.358955075E0,-3.355642803E0,5.386072979E0
1.369953083E0,3.827319271E0,-2.644508529E0,-3.444911368E0,5.788714235E0
1.379970083E0,4.407804529E0,-3.058089693E0,-3.308218376E0,6.302774164E0
1.389986083E0,5.429410459E0,-3.580771131E0,-2.820124388E0,7.088971815E0
1.400003083E0,6.435742586E0,-4.028514653E0,-2.526702921E0,8.001996038E0
1.410020083E0,6.827042350E0,-3.434760309E0,-2.488301917E0,8.037271431E0
1.420036083E0,6.296725034E0,-2.018890368E0,-2.808953868E0,7.184350096E0
1.430053083E0,5.364477714E0,-5.791719729E-1,-3.726683720E0,6.557532529E0
1.440069083E0,4.909909322E0,-2.812627673E-2,-4.881790647E0,6.923863124E0
1.450086083E0,4.620828828E0,-4.668510532E-1,-4.537582603E0,6.493047423E0
1.460103083E0,3.344031402E0,-4.610225487E-1,-2.548506019E0,4.229653737E0
1.470119083E0,1.776686562E0,-4.558372378E-2,-8.102913576E-1,1.953270361E0
1.480136083E0,3.989907534E-1,-2.069920188E-1,4.684964232E-1,6.492520433E-1
1.490153083E0,4.206929136E-1,-1.711611584E0,1.886661433E0,2.581876857E0
1.500169083E0,9.764331199E-1,-3.921371443E0,2.423854491E0,4.712286729E0
1.510186083E0,7.622055372E-1,-5.064613785E0,4.389342238E0,6.745190535E0
1.520203083E0,9.992012275E-1,-5.603792557E0,5.207315083E0,7.714727764E0
1.530219083E0,1.381814588E0,-7.332008479E0,3.788785243E0,8.367953962E0
1.540236083E0,4.882532512E-1,-8.895678490E0,2.365653645E0,9.217798229E0
1.550253083E0,-6.177492705E-1,-9.358600799E0,1.495937619E0,9.497518225E0
1.560269083E0,-1.737316821E0,-9.143832568E0,1.566499479E0,9.438318938E0
1.570286083E0,-2.632102491E0,-8.903005636E0,2.154894119E0,9.530741920E0
1.580302083E0,-3.817920164E0,-8.103259147E0,2.625033792E0,9.334351911E0
1.590319083E0,-4.714098642E0,-6.033017362E0,2.251305496E0,7.980501295E0
1.600336083E0,-5.895358118E0,-3.416594179E0,2.108250002E0,7.132536799E0
1.610352083E0,-5.814290566E0,-8.904736412E-1,2.698347352E0,6.471475606E0
1.620369083E0,-4.908845714E0,7.101379091E-1,2.208102904E0,5.429252299E0
1.630386083E0,-4.772301534E0,2.292336577E0,2.127200682E0,5.705668379E0
1.640402083E0,-4.759278030E0,3.685976574E0,2.097881720E0,6.374814380E0
1.650419083E0,-4.928906926E0,3.695629742E0,1.016325603E0,6.243774532E0
1.660436083E0,-4.687607831E0,3.852798221E0,6.243700728E-1,6.099799939E0
1.670452083E0,-3.755211408E0,4.495104336E0,1.435829119E0,6.030686608E0
1.680469083E0,-2.162893256E0,5.278113170E0,1.005196012E0,5.791977632E0
1.690485083E0,-1.264971724E0,6.115874746E0,1.414844924E0,6.403582086E0
1.700502083E0,-8.801003882E-1,6.602358996E0,3.053028051E0,7.327120941E0
1.710519083E0,-1.714183774E0,6.661090769E0,3.297346940E0,7.627650561E0
1.720535083E0,-3.304530829E0,6.533128547E0,3.216075321E0,7.996551324E0
1.730552083E0,-4.820992176E0,7.154762415E0,3.502591811E0,9.311323223E0
1.740569083E0,-6.145019608E0,7.673327998E0,3.469954115E0,1.042505684E1
1.750585083E0,-7.054161070E0,7.766985775E0,2.984547508E0,1.090847287E1
1.760602083E0,-7.253500838E0,7.601327723E0,2.821379786E0,1.087904598E1
1.770619083E0,-6.637717109E0,6.826917220E0,2.956266865E0,9.970235750E0
1.780635083E0,-5.415404039E0,5.647179481E0,2.733102324E0,8.287767209E0
1.790652083E0,-4.029144106E0,4.611312484E0,2.179169858E0,6.499768174E0
1.800668083E0,-2.493219425E0,3.595665159E0,1.535186470E0,4.636997793E0
1.810685083E0,-4.579211855E-1,2.658269366E0,2.502526438E-1,2.709006131E0
1.820702083E0,1.667502089E0,1.054431322E0,-1.097612717E0,2.257685166E0
1.830718083E0,4.230279261E0,-1.072261822E0,-2.331557069E0,4.947844622E0
1.840735083E0,6.164551647E0,-3.485631085E0,-3.751644606E0,8.014122430E0
1.850752083E0,6.920619435E0,-5.228255716E0,-5.801223793E0,1.043474143E1
1.860768083E0,5.968324937E0,-5.897237998E0,-7.321672940E0,1.113576280E1
1.870785083E0,5.568576531E0,-4.818550671E0,-5.629056036E0,9.268966879E0
1.880802083E0,6.284447050E0,-2.668879139E0,-3.791341353E0,7.809702929E0
1.890818083E0,6.649585787E0,-1.301974951E0,-3.376069174E0,7.570335064E0
1.900835083E0,6.412567146E0,-1.440177986E0,-2.992913704E0,7.221680032E0
1.910852208E0,5.818103535E0,-1.891935622E0,-2.283352623E0,6.530195123E0
1.920869208E0,4.864880499E0,-1.939105110E0,-1.650845565E0,5.491127569E0
1.930886208E0,3.879279384E0,-1.537975007E0,-1.028318242E0,4.297861569E0
1.940902208E0,2.066742811E0,-1.149963716E0,-8.485032043E-1,2.512727618E0
1.950919208E0,-2.655603620E-1,-2.138098138E0,-1.396751592E0,2.567664496E0
1.960936208E0,-1.640008043E0,-4.060925184E0,-1.973425635E0,4.803659904E0
1.970952208E0,-1.701217866E0,-6.185298153E0,-3.826905873E0,7.469756625E0
1.980969208E0,-5.493979508E-1,-7.639651544E0,-2.054567446E0,7.930155182E0
1.990986208E0,-1.046206629E0,-8.071432752E0,1.627116394E0,8.300004984E0
2.001002208E0,-3.414780665E0,-7.605838850E0,3.303556976E-1,8.343778910E0
2.011019208E0,-6.673690934E0,-4.346340060E0,2.796299323E-1,7.969128904E0
2.021036208E0,-9.979749348E0,2.139818389E0,2.487073417E0,1.050522508E1
2.031052208E0,-1.178290786E1,6.803108527E0,4.803440881E-1,1.361432825E1
2.041069208E0,-1.114553914E1,8.133156545E0,-2.044376627E-1,1.379902434E1
2.051085208E0,-8.575420641E0,6.227647197E0,3.856325262E0,1.127797293E1
2.061102208E0,-5.383560103E0,2.201522886E0,8.723045880E0,1.048431933E1
2.071119208E0,-3.713817506E0,-2.740737911E0,8.174834329E0,9.387864564E0
2.081135208E0,-3.023834365E0,-4.667648653E0,6.626815560E0,8.651312194E0
2.091152208E0,-3.011759572E0,-4.504434738E0,6.280900129E0,8.295199483E0
2.101169208E0,-2.567671730E0,-3.954805822E0,5.901024070E0,7.553509931E0
2.111185208E0,-1.484820893E0,-3.464856513E0,5.529380890E0,6.692083141E0
2.121202208E0,-1.439931526E0,-2.828056721E0,4.652321931E0,5.631643363E0
2.131219208E0,-1.060872834E0,-1.515571400E0,3.953175033E0,4.364630647E0
2.141235208E0,-1.149463560E0,-3.841825336E-1,3.096662021E0,3.325383943E0
2.151252208E0,-1.473507846E0,5.640247607E-1,2.475141588E0,2.935247040E0
2.161268208E0,-9.374030285E-1,8.551699072E-1,2.426920624E0,2.738609816E0
2.171285208E0,-5.917266027E-1,7.912183249E-1,2.381381339E0,2.578205557E0
2.181302208E0,-1.442780728E-1,5.967761850E-1,2.316313670E0,2.396302776E0
2.191318208E0,6.972086189E-1,3.135201019E-1,2.174421626E0,2.304887008E0
2.201335208E0,1.902571122E0,3.441396314E-1,-1.543729252E0,2.474127920E0
2.211352208E0,3.952613701E0,1.147357612E0,-8.895213636E0,9.801245339E0
2.221368208E0,3.068768463E0,1.012161800E0,-1.632416310E0,3.620303081E0
2.231385208E0,2.991222689E0,1.439224305E0,1.501895932E0,3.643414767E0
2.241402208E0,3.177407683E0,1.578164089E0,1.432812248E0,3.826156351E0
2.251418208E0,2.335149305E0,1.291100884E0,-2.695856949E-2,2.668443467E0
2.261435208E0,1.575064919E0,2.161389352E0,-2.040817426E0,3.364129783E0
2.271451208E0,1.782690922E0,2.880904441E0,-1.935272845E0,3.901650715E0
2.281468208E0,2.085179813E0,2.421462395E0,-8.358928797E-1,3.303054933E0
2.291485208E0,2.271524875E0,8.892492342E-1,-2.216696265E-1,2.449433992E0
2.301501208E0,2.525286140E0,1.122080684E-3,-5.018087782E-2,2.525784922E0
2.311518208E0,2.496998481E0,-1.186639792E-1,1.853016993E-1,2.506674943E0
2.321535208E0,1.654081121E0,6.106551361E-1,3.858090828E-1,1.804919029E0
2.331551208E0,1.519718538E0,1.832253091E0,3.045001870E-1,2.399878369E0
2.341568208E0,1.464106839E0,2.653997390E0,-8.091961741E-3,3.031068535E0
2.351585208E0,9.858714031E-1,3.008105355E0,-6.306508595E-1,3.227748558E0
2.361601208E0,3.841262542E-2,2.935180635E0,-1.699017851E0,3.391669581E0
2.371618208E0,1.359689235E-1,2.422307902E0,-2.259202891E0,3.315126064E0
2.381634208E0,1.632368838E-1,2.002877768E0,-2.216970499E0,2.992177105E0
2.391651208E0,1.381007635E-1,1.378909691E0,-2.030742089E0,2.458531511E0
2.401668208E0,2.374203215E-2,6.981534559E-1,-1.955634166E0,2.076652817E0
2.411684208E0,-1.964827816E-1,7.356089652E-2,-1.814109766E0,1.826201230E0
2.421701208E0,-4.168414623E-1,-4.973109537E-1,-1.666075953E0,1.787983241E0
2.431718208E0,-1.576693295E-1,-1.078753400E0,-1.831528767E0,2.131446960E0
2.441734208E0,2.378409784E-1,-1.559708523E0,-2.756715428E0,3.176277531E0
2.451751208E0,1.046756121E0,-2.063248515E0,-3.977817247E0,4.601708689E0
2.461768208E0,1.834206938E0,-2.238161539E0,-3.948340555E0,4.895209425E0
2.471784208E0,2.665816952E0,-2.361899148E0,-3.093070076E0,4.717226950E0
2.481801208E0,3.463633567E0,-2.175730818E0,-2.496453520E0,4.791955995E0
2.491817208E0,4.073186211E0,-1.746329427E0,-2.559932063E0,5.117984422E0
2.501834208E0,4.391957990E0,-1.590708121E0,-3.224569863E0,5.676045993E0
2.511851208E0,4.776688700E0,-2.101778158E0,-3.559207769E0,6.316817735E0
2.521867208E0,5.184770558E0,-2.806981602E0,-3.144528790E0,6.681994669E0
2.531884208E0,5.482965108E0,-3.285320095E0,-3.028310409E0,7.072969562E0
2.541901208E0,5.996585115E0,-3.749457455E0,-3.279288400E0,7.795588282E0
2.551917208E0,6.541905802E0,-4.372815667E0,-3.630870659E0,8.666098899E0
2.561934208E0,7.122898598E0,-4.681698343E0,-3.202435813E0,9.105469727E0
2.571951208E0,7.276350587E0,-4.036588488E0,-2.439606305E0,8.671274613E0
2.581967208E0,5.372881917E0,-2.603186256E0,-2.331465998E0,6.409381599E0
2.591984208E0,2.878424052E0,-1.901899277E0,-2.410288219E0,4.208566880E0
2.602000208E0,1.969645848E0,-2.469825300E0,-2.740094132E0,4.181824678E0
2.612017208E0,1.581853244E0,-3.063226472E0,-2.022754793E0,3.997143112E0
2.622034208E0,-2.987960089E-2,-3.058518294E0,-1.553804370E-1,3.062608370E0
2.632050208E0,-1.924107587E0,-1.422132894E0,1.988314692E0,3.110956009E0
2.642067208E0,-1.433668427E0,-2.068228004E0,2.578897507E0,3.603288024E0
2.652084208E0,-1.561459471E-1,-4.991817119E0,3.032166063E0,5.842657849E0
2.662100208E0,-9.847461064E-1,-6.337335700E0,4.804415027E0,8.013360869E0
2.672117208E0,-1.513391558E0,-6.228500306E0,6.169936348E0,8.896779452E0
2.682134208E0,-1.250573979E0,-6.615629836E0,5.568840240E0,8.737418099E0
2.692150208E0,-8.043815768E-1,-7.112169542E0,3.266081586E0,7.867482078E0
2.702167208E0,-5.203715683E-1,-7.190961358E0,7.393687248E-2,7.210144137E0
2.712184208E0,-8.030948970E-1,-6.530037709E0,-1.946015350E0,6.861000629E0
2.722200208E0,-2.406035247E0,-5.182229358E0,-2.203617944E0,6.123760182E0
2.732217208E0,-4.085013959E0,-3.761877526E0,-7.409850414E-1,5.602510187E0
2.742233208E0,-4.639990738E0,-2.468178724E0,1.480804879E0,5.460238397E0
2.752250208E0,-4.254901009E0,-6.768941492E-1,3.766947062E0,5.722958890E0
2.762267208E0,-4.100434236E0,5.668805408E-1,4.377158979E0,6.024486302E0
2.772283208E0,-4.192411523E0,1.282299655E0,4.085123302E0,5.992398449E0
2.782300208E0,-4.206446887E0,2.405895352E0,2.860797328E0,5.627316342E0
2.792317208E0,-3.697641769E0,3.363241845E0,1.867538699E0,5.335883352E0
2.802333208E0,-3.177338979E0,3.943103204E0,1.411602205E0,5.257011190E0
2.812350208E0,-3.402486017E0,4.383326622E0,2.128059346E0,5.942987460E0
2.822366208E0,-2.419985973E0,4.770777165E0,2.345814042E0,5.841189124E0
2.832383208E0,-1.203183904E0,4.890159767E0,1.955473952E0,5.402332128E0
2.842400208E0,-1.407870073E0,4.924946607E0,1.451226300E0,5.323838371E0
2.852416208E0,-2.159799494E0,5.356826048E0,1.339707326E0,5.929176577E0
2.862433208E0,-2.357357323E0,5.625733064E0,2.123593242E0,6.458765696E0
2.872450208E0,-3.176057854E0,5.974928198E0,2.284140827E0,7.141737168E0
2.882466208E0,-3.980671565E0,6.518263755E0,2.255154571E0,7.963619192E0
2.892483208E0,-4.478889422E0,7.001691665E0,2.409622075E0,8.653924842E0
2.902500208E0,-5.028172767E0,7.115098413E0,2.465647757E0,9.054643320E0
2.912515333E0,-5.266095387E0,7.121194720E0,2.623195428E0,9.237116927E0
2.922532333E0,-4.959517100E0,7.069209464E0,3.082886273E0,9.169226799E0
2.932548333E0,-4.532646384E0,6.569994072E0,3.083264295E0,8.556647946E0
2.942565333E0,-4.065564950E0,5.460173246E0,2.599314522E0,7.286888652E0
2.952582333E0,-3.093307473E0,4.307254931E0,2.337304882E0,5.795169564E0
2.962598333E0,-2.195678886E0,3.041432145E0,1.891000359E0,4.200856773E0
2.972615333E0,-1.170810940E0,1.550063540E0,6.778159627E-1,2.057408495E0
2.982632333E0,1.263190077E0,-2.551222050E-1,-2.130150310E0,2.489633880E0
2.992648333E0,5.592664136E0,-3.026674358E0,-6.785330653E0,9.299428040E0
3.002665333E0,9.088426107E0,-6.616734960E0,-9.340283811E0,1.461579872E1
3.012682333E0,8.759894448E0,-8.171424817E0,-7.318708402E0,1.403821310E1
3.022698333E0,6.442920043E0,-6.604103220E0,-2.590055748E0,9.582994668E0
3.032715333E0,5.182240468E0,-3.957600791E0,-2.586682782E0,7.014923243E0
3.042731333E0,5.407661156E0,-2.304435051E0,-5.056277994E0,7.753655089E0
3.052748333E0,5.636595436E0,-2.510909591E0,-5.149021851E0,8.036684709E0
3.062765333E0,4.428456894E0,-3.067939328E0,-2.867733880E0,6.103063148E0
3.072781333E0,2.866626125E0,-2.250116757E0,-1.372748772E0,3.894227773E0
3.082798333E0,1.311117365E0,-1.341202167E0,-1.852301147E0,2.636071231E0
3.092815333E0,2.815288156E-2,-2.874971271E0,-3.242333120E0,4.333471640E0
3.102831333E0,6.151756185E-1,-6.595568624E0,-4.719479249E0,8.133477172E0
3.112848333E0,2.959100425E0,-1.002170195E1,-3.908348816E0,1.115643204E1
3.122865333E0,4.481301691E0,-1.098094470E1,1.107338391E0,1.191173411E1
3.132881333E0,1.979455284E0,-8.745665833E0,5.527263613E0,1.053354438E1
3.142898333E0,-2.982703881E0,-3.862114005E0,7.750390792E0,9.158657350E0
3.152914333E0,-7.601581492E0,2.071693064E0,8.669191854E0,1.171455679E1
3.162931333E0,-1.060234099E1,7.017118959E0,2.385757542E0,1.293605164E1
3.172948333E0,-1.215132689E1,9.767995357E0,-6.228081061E0,1.678861138E1
3.182964333E0,-1.058720021E1,9.394802080E0,-1.818253395E0,1.427085000E1
3.192981333E0,-6.560432121E0,7.255603496E0,7.251341461E0,1.217641182E1
3.202998333E0,-5.101719630E0,4.447272942E0,6.870012953E0,9.643798929E0
3.213014333E0,-6.306837208E0,-4.149953721E0,5.644841180E0,9.426693132E0
3.223031333E0,-5.470356172E0,-8.101849968E0,5.738272669E0,1.133545512E1
3.233048333E0,-4.411188020E0,-8.591705722E0,5.430295143E0,1.107989586E1
3.243064333E0,-4.065571382E0,-7.887453035E0,4.463504813E0,9.932958334E0
3.253081333E0,-2.183774832E0,-6.410614761E0,3.618889714E0,7.678620768E0
3.263097333E0,-6.510691904E-1,-4.422770185E0,2.907357244E0,5.332683503E0
3.273114333E0,-4.142698203E-1,-1.760737551E0,2.905536422E0,3.422566012E0
3.283131333E0,-4.528871714E-1,2.135391462E-1,3.335378108E0,3.372751530E0
3.293147333E0,-5.547659140E-1,1.222775000E0,3.536243999E0,3.782587149E0
3.303164333E0,-4.486074480E-1,1.906456597E0,3.508555386E0,4.018181964E0
3.313181333E0,-9.671791703E-2,2.043482003E0,3.193852100E0,3.792870191E0
3.323197333E0,8.040871695E-3,1.596296890E0,1.387071965E0,2.114756973E0
3.333214333E0,-4.907951821E-1,1.186932153E0,-5.606375856E0,5.751620475E0
3.343231333E0,1.447507471E-2,2.902066684E-1,-1.713463397E0,1.737925847E0
3.353247333E0,8.640448111E-1,-4.898037136E-2,2.329009144E0,2.484603813E0
3.363264333E0,5.432077959E-1,3.780166447E-1,1.797194356E0,1.915170709E0
3.373280333E0,5.415150635E-1,1.134185590E0,1.082401478E0,1.658676724E0
3.383297333E0,8.992308699E-1,1.461192294E0,-4.317923176E-1,1.769221208E0
3.393314333E0,9.663167059E-1,1.808357860E0,-2.253343835E0,3.046552899E0
3.403330333E0,1.027152307E0,2.058321651E0,-3.020971568E0,3.797104041E0
3.413347333E0,1.508873853E0,1.281169973E0,-2.144043002E0,2.918050239E0
3.423364333E0,1.963197393E0,8.776477736E-1,-9.110581791E-1,2.335473533E0
3.433380333E0,1.692578166E0,1.543622832E0,-1.411839455E-1,2.295108974E0
3.443397333E0,1.635071823E0,1.997611765E0,6.211175591E-1,2.655127050E0
3.453414333E0,2.129615582E0,1.998270746E0,1.146492224E0,3.137322573E0
3.463430333E0,2.781778933E0,2.075395521E0,1.444350559E0,3.759216559E0
3.473447333E0,2.628248007E0,1.852837629E0,1.375796487E0,3.497643612E0
3.483463333E0,1.951398443E0,1.488518087E0,1.054138523E0,2.671114000E0
3.493480333E0,1.044434776E0,1.221545330E0,2.419143681E-1,1.625281378E0
3.503497333E0,3.863428605E-1,5.350605780E-1,-1.473311087E0,1.614371763E0
3.513513333E0,-1.059531922E-1,-4.660377055E-1,-2.242175799E0,2.292546518E0
3.523530333E0,9.136369474E-2,-1.044785755E0,-2.292567688E0,2.521069457E0
3.533547333E0,1.850402922E-1,-8.669345051E-1,-3.495785944E0,3.606429635E0
3.543563333E0,1.625093257E-1,2.572774887E-4,-5.220981195E0,5.223509738E0
3.553580333E0,1.166772926E0,5.996705568E-1,-5.743437515E0,5.891352843E0
3.563597333E0,2.944615703E0,4.040402627E-1,-4.648687010E0,5.517635461E0
3.573613333E0,3.997999496E0,-7.494686204E-1,-2.912390528E0,5.002771409E0
3.583630333E0,4.122717098E0,-2.394737695E0,-2.037182797E0,5.184754444E0
3.593646333E0,4.474760410E0,-3.558925933E0,-2.231535182E0,6.137522611E0
3.603663333E0,5.036205672E0,-3.782787754E0,-2.761639660E0,6.877463513E0
3.613680333E0,5.495286945E0,-3.511739488E0,-3.063072106E0,7.205060969E0
3.623696333E0,6.014603895E0,-3.013694708E0,-3.151089658E0,7.428807565E0
3.633713333E0,6.100645673E0,-2.851054405E0,-3.409745920E0,7.548029948E0
3.643730333E0,5.964409057E0,-3.172465324E0,-3.546655259E0,7.630037690E0
3.653746333E0,5.562540450E0,-3.895488743E0,-3.685812559E0,7.726700656E0
3.663763333E0,5.238111783E0,-4.430251113E0,-4.037962584E0,7.960532758E0
3.673780333E0,4.884213733E0,-4.304022591E0,-4.069676127E0,7.677396566E0
3.683796333E0,4.515682149E0,-3.479157048E0,-3.813948151E0,6.858725795E0
3.693813333E0,3.773563187E0,-2.083817266E0,-3.199172482E0,5.368126124E0
3.703829333E0,3.068296593E0,-7.260861897E-1,-2.521441011E0,4.037240383E0
3.713846333E0,2.406706069E0,-1.819419622E-1,-2.863592589E0,3.745063350E0
3.723863333E0,2.302730442E0,-4.443217313E-1,-3.026793056E0,3.829029315E0
3.733879333E0,3.437228126E0,-1.259249346E0,-9.231876433E-1,3.775251188E0
3.743896333E0,2.722984887E0,-1.535751895E0,1.747862567E0,3.581648242E0
3.753913333E0,1.521077431E0,-1.036257591E0,4.462492660E0,4.827146888E0
3.763929333E0,1.618976777E0,-2.163510722E0,5.409126468E0,6.046529054E0
3.773946333E0,1.551977334E0,-4.968282661E0,4.676497829E0,6.997292204E0
3.783963333E0,8.949286348E-1,-6.486175405E0,5.734345679E0,8.703682498E0
3.793979333E0,1.061891638E-1,-6.746768850E0,6.343211567E0,9.261020411E0
3.803996333E0,-6.909808226E-2,-7.089546665E0,4.763272848E0,8.541382481E0
3.814012333E0,-1.031127244E-2,-7.933886944E0,1.476337752E0,8.070083117E0
3.824029333E0,-7.021249578E-1,-7.942880546E0,-7.868014844E-1,8.012576827E0
3.834046333E0,-2.531585054E0,-6.949557890E0,-1.034412137E0,7.468285360E0
3.844062333E0,-3.766666980E0,-5.318609231E0,-9.161777088E-1,6.581395436E0
3.854079333E0,-4.407419197E0,-3.379820455E0,1.713848144E-2,5.554171767E0
3.864096333E0,-4.316768351E0,-1.350104553E0,1.672213776E0,4.822195580E0
3.874112333E0,-3.525438929E0,1.758134955E-1,2.603588544E0,4.386149033E0
3.884129333E0,-3.291822783E0,1.042656784E0,3.663296978E0,5.034180684E0
3.894146333E0,-4.298319801E0,1.842446542E0,3.873040112E0,6.072116771E0
3.904162333E0,-5.234241511E0,2.832993525E0,3.589141420E0,6.950185080E0
3.914179000E0,-5.192146236E0,3.389108757E0,3.671328714E0,7.205768191E0
3.924195000E0,-4.601207618E0,3.324403469E0,2.137746866E0,6.065701249E0
3.934212000E0,-4.489174089E0,3.186355970E0,4.538165863E-1,5.523721378E0
3.944229000E0,-3.687015039E0,3.981631093E0,1.137665852E0,5.544524295E0
3.954245000E0,-3.536466486E0,4.002785735E0,1.767655099E0,5.626143741E0
3.964262000E0,-3.367410325E0,4.201414481E0,2.589138028E0,5.974526899E0
3.974279000E0,-2.545406702E0,4.428768259E0,2.591274600E0,5.727808274E0
3.984295000E0,-2.136852389E0,4.631156765E0,2.461694162E0,5.663363776E0
3.994312000E0,-2.099853547E0,4.971697435E0,2.565827225E0,5.975837151E0
4.004328000E0,-3.006108531E0,5.440554668E0,2.888827418E0,6.854315972E0
4.014345000E0,-4.381733841E0,5.763856577E0,3.139939603E0,7.891822020E0
4.024362000E0,-4.959031781E0,5.888715096E0,3.518862273E0,8.464712245E0
4.034378000E0,-5.340649141E0,5.723711348E0,3.625247977E0,8.627040497E0
4.044395000E0,-5.696275628E0,5.369570639E0,3.281909999E0,8.488272976E0
4.054412000E0,-5.489840848E0,4.786251821E0,2.639448933E0,7.746821910E0
4.064428000E0,-4.999482819E0,3.883206666E0,2.051945847E0,6.654667853E0
4.074445000E0,-4.191698455E0,2.843808535E0,1.866173959E0,5.398165259E0
4.084462000E0,-3.073226965E0,1.691974295E0,1.244488927E0,3.722398915E0
4.094478000E0,-1.291104977E0,6.398321575E-1,4.425055861E-2,1.441629413E0
4.104495000E0,1.117436094E0,-2.608963305E-1,-1.833421365E0,2.162906429E0
4.114511000E0,2.905932278E0,-2.116779190E0,-4.954313078E0,6.121308244E0
4.124528000E0,4.950633425E0,-4.176026455E0,-7.439689048E0,9.863921198E0
4.134545000E0,6.509119295E0,-5.336544396E0,-8.780168499E0,1.216300534E1
4.144561000E0,5.998596557E0,-5.140369141E0,-7.193918295E0,1.068452226E1
4.154578000E0,5.225454315E0,-3.590240112E0,-2.638573897E0,6.867115047E0
4.164595000E0,4.980030302E0,-1.868224577E0,-2.866445446E-1,5.326643406E0
4.174611000E0,4.960048027E0,-1.272462299E0,-1.343170047E0,5.293896723E0
4.184628000E0,5.154049287E0,-1.222381482E0,-2.480950212E0,5.849235377E0
4.194645000E0,4.483991995E0,-1.174716150E0,-1.427954089E0,4.850277840E0
4.204661000E0,3.195979902E0,-1.745762247E-1,1.688801596E-1,3.205196546E0
4.214678000E0,1.572949835E0,1.247550237E0,2.954747173E-1,2.029250622E0
4.224694000E0,-1.717309695E-1,1.189123104E0,-9.011050487E-1,1.501830747E0
4.234711000E0,-3.283296373E-1,-9.571471024E-1,-2.519579550E0,2.715181769E0
4.244728000E0,1.431945983E0,-3.711602581E0,-3.230793055E0,5.124888953E0
4.254744000E0,2.106339279E0,-4.525389404E0,1.928364944E-1,4.995297822E0
4.264761000E0,-8.662954044E-1,-3.434154537E0,4.919244402E0,6.061588125E0
4.274778000E0,-3.525714333E0,-4.306745639E0,4.110734399E0,6.919310432E0
4.284794000E0,-2.678918516E0,-6.504318731E0,-9.475638083E-1,7.097932356E0
4.294811000E0,-4.028093653E0,-5.757380785E0,-6.642472064E-1,7.057917281E0
4.304828000E0,-7.903317701E0,-1.236684356E0,-3.502900252E-1,8.007154424E0
4.314844000E0,-9.950349548E0,2.810875847E0,-2.072252058E0,1.054536428E1
4.324861000E0,-8.998742098E0,3.557116805E0,6.985972595E-1,9.701467798E0
4.334877000E0,-7.217972571E0,1.617302427E0,5.867048239E0,9.441241984E0
4.344894000E0,-5.777956553E0,4.561541569E-1,6.680937388E0,8.844647134E0
4.354911000E0,-5.063709805E0,-1.888592184E-1,6.129192950E0,7.952599010E0
4.364927000E0,-4.432565148E0,-1.443667020E0,6.222701622E0,7.775205704E0
4.374944000E0,-4.010935876E0,-2.363952690E0,5.593297974E0,7.277421325E0
4.384961000E0,-4.303509497E0,-2.117322981E0,4.931313640E0,6.879033712E0
4.394977000E0,-4.127149580E0,-1.247202913E0,4.260804065E0,6.061627673E0
4.404994000E0,-3.187332455E0,-8.179477018E-1,3.119249815E0,4.534076094E0
4.415011000E0,-2.101636363E0,-8.630256414E-1,1.947044460E0,2.992101400E0
4.425027000E0,-1.159499794E0,-4.791132492E-1,1.435174524E0,1.906230624E0
4.435044000E0,-9.780579150E-1,4.190056264E-2,1.655523337E0,1.923307168E0
4.445060000E0,-1.601949393E0,1.616217184E-1,1.717327237E0,2.354055283E0
4.455077000E0,-1.574906752E0,6.083793998E-2,2.087536680E0,2.615691480E0
4.465094000E0,-9.407338949E-1,-3.072092021E-1,2.508865989E0,2.696992085E0
4.475110000E0,-2.251850456E-1,-7.582055300E-1,2.291142576E0,2.423823061E0
4.485127000E0,1.088113477E0,-7.972731167E-1,-6.487965238E-1,1.496854131E0
4.495144000E0,2.249477510E0,1.612632841E-1,-5.299096488E0,5.759043193E0
4.505160000E0,1.914387029E0,7.775750166E-1,-7.747689378E-1,2.206754973E0
4.515177000E0,1.455721055E0,8.179149574E-1,2.208334308E0,2.768546384E0
4.525194000E0,1.985885759E0,1.085194108E0,1.753806846E0,2.863079977E0
4.535210000E0,2.258435006E0,1.516391764E0,1.174481676E0,2.963001833E0
4.545227000E0,1.948598065E0,1.511325737E0,-1.474678751E-1,2.470402128E0
4.555243000E0,2.097780417E0,1.121633956E0,-1.476795005E0,2.799940873E0
4.565260000E0,2.218398389E0,8.043833309E-1,-1.312217519E0,2.700044217E0
4.575277000E0,2.439434397E0,1.025606888E0,-5.250215665E-1,2.697843085E0
4.585293000E0,2.641696018E0,1.152292662E0,1.294853481E-1,2.884978802E0
4.595310000E0,2.684151481E0,1.715475424E0,6.420483984E-2,3.186164994E0
4.605327000E0,2.378942319E0,2.037129003E0,-5.870575279E-1,3.186518111E0
4.615343000E0,2.234498551E0,2.079927113E0,-7.981800929E-1,3.155340240E0
4.625360000E0,1.674572104E0,2.103948644E0,-9.365959666E-1,2.847455642E0
4.635377000E0,1.182458082E0,2.357832994E0,-7.262775399E-1,2.735884246E0
4.645393000E0,8.437420359E-1,2.517284811E0,-6.636035742E-1,2.736602482E0
4.655410000E0,6.485988879E-1,2.271772504E0,-9.325756404E-1,2.539946487E0
4.665426000E0,6.138615299E-1,1.761058563E0,-1.116854589E0,2.173825525E0
4.675443000E0,4.210325637E-1,1.108284178E0,-1.291446016E0,1.753110108E0
4.685460000E0,-3.191476998E-2,4.630872005E-1,-1.956529228E0,2.010839359E0
4.695476000E0,-2.015198290E-1,-1.599710494E-1,-3.452896325E0,3.462469352E0
4.705493000E0,2.024165908E-1,-1.027487937E0,-4.887851871E0,4.998779836E0
4.715510000E0,1.133737547E0,-1.513560542E0,-4.785648681E0,5.145741894E0
4.725526000E0,2.361242798E0,-1.747834500E0,-3.427882814E0,4.514507013E0
4.735543000E0,3.475374484E0,-2.187692467E0,-2.569187913E0,4.844063652E0
4.745560000E0,4.395023977E0,-2.697901209E0,-2.557433547E0,5.756333298E0
4.755576000E0,4.928827404E0,-2.813719933E0,-2.959329344E0,6.400624157E0
4.765593000E0,5.090576591E0,-2.444472358E0,-3.355021537E0,6.568529870E0
4.775609000E0,4.987632267E0,-2.141965486E0,-3.023109895E0,6.213186398E0
4.785626000E0,5.167623598E0,-2.384610903E0,-2.871091644E0,6.374470177E0
4.795643000E0,5.494659539E0,-2.529965082E0,-3.055717478E0,6.777124469E0
4.805659000E0,5.363474332E0,-2.642901129E0,-3.286560874E0,6.822995359E0
4.815676000E0,5.264571018E0,-2.969307910E0,-3.353977224E0,6.912427988E0
4.825693000E0,5.253417454E0,-3.311339035E0,-3.270053599E0,7.018305472E0
4.835709000E0,4.971833675E0,-3.314588917E0,-3.122379829E0,6.742023849E0
4.845726000E0,4.713833763E0,-2.491917835E0,-2.890804362E0,6.065198521E0
4.855743000E0,3.312805224E0,-5.533962768E-1,-3.463683561E0,4.824731050E0
4.865759000E0,2.353337947E0,1.074817640E0,-4.267723076E0,4.990680585E0
4.875776000E0,2.798539392E0,1.274051573E0,-4.815410131E0,5.713423218E0
4.885792000E0,3.758155481E0,1.103024608E-1,-3.759439237E0,5.316886554E0
4.895809000E0,4.065379886E0,-1.316288350E0,-1.720627990E0,4.606570234E0
4.905826000E0,3.523567235E0,-2.620510971E0,-2.681498015E-1,4.399375879E0
4.915841375E0,3.413478052E-1,-2.164335179E0,3.553013813E0,4.174299013E0
4.925858375E0,-7.785778872E-1,-1.584963816E0,6.398316897E0,6.637526116E0
4.935875375E0,7.199010781E-1,-5.115903221E0,3.073616974E0,6.011476078E0
4.945891375E0,6.100316767E-1,-8.009794913E0,2.481846006E0,8.407646091E0
4.955908375E0,-3.943253332E-1,-7.908839226E0,3.911926435E0,8.832236343E0
4.965925375E0,-6.197975501E-1,-8.370298562E0,4.506026934E0,9.526296539E0
4.975941375E0,-8.756063645E-1,-8.853220103E0,3.820881779E0,9.682217218E0
4.985958375E0,-6.537774745E-1,-8.251430515E0,1.257447234E0,8.372258004E0
4.995974375E0,-7.457139771E-1,-7.442600377E0,-7.700538893E-1,7.519399756E0
5.005991375E0,-1.725304886E0,-6.149420807E0,-1.599480114E0,6.584101294E0
5.016008375E0,-2.821757516E0,-4.184869199E0,-1.043395872E0,5.154039255E0
5.026024375E0,-3.653793499E0,-2.905490229E0,1.078715394E0,4.791211465E0
5.036041375E0,-3.237969050E0,-1.516940233E0,3.266780913E0,4.843284916E0
5.046058375E0,-2.521138126E0,-2.930226874E-1,4.076741903E0,4.802272825E0
5.056074375E0,-3.762384480E0,1.122963613E-1,3.228081701E0,4.958695283E0
5.066091375E0,-3.797168396E0,6.063621104E-1,2.652776492E0,4.671550701E0
5.076108375E0,-3.151175612E0,8.590360862E-1,1.970676566E0,3.814631944E0
5.086124375E0,-3.586811889E0,1.203493221E0,1.104011910E0,3.941123921E0
5.096141375E0,-4.299331954E0,2.554068475E0,8.155998985E-1,5.066825853E0
5.106157375E0,-3.315246145E0,3.299627062E0,1.722257463E0,4.984432417E0
5.116174375E0,-2.254679047E0,3.613530157E0,2.836153361E0,5.117122598E0
5.126191375E0,-3.390970803E0,3.792045650E0,3.119480195E0,5.967365406E0
5.136207375E0,-3.749722627E0,4.311460834E0,3.301458410E0,6.599147061E0
5.146224375E0,-3.331154372E0,4.855071210E0,3.586102037E0,6.894086867E0
5.156241375E0,-3.675363293E0,5.331083096E0,3.735921443E0,7.475684005E0
5.166257375E0,-4.671630607E0,5.843032554E0,3.555590389E0,8.282957501E0
5.176274375E0,-6.084381058E0,6.088247237E0,3.796491873E0,9.407433116E0
5.186291375E0,-7.219172419E0,6.107937151E0,4.044901182E0,1.028516272E1
5.196307375E0,-7.684355847E0,6.368862718E0,3.874437889E0,1.070621343E1
5.206324375E0,-7.338243949E0,6.537746093E0,3.404879283E0,1.040120912E1
5.216340375E0,-6.430292981E0,6.126471655E0,3.049645729E0,9.390562381E0
5.226357375E0,-5.316865007E0,5.469020668E0,2.725582220E0,8.099878950E0
5.236374375E0,-4.265487978E0,4.521689286E0,2.348613397E0,6.645001623E0
5.246390375E0,-2.798301118E0,3.349504396E0,1.520412894E0,4.621831262E0
5.256407375E0,-6.442180078E-1,2.361847692E0,7.842636466E-2,2.449386057E0
5.266424375E0,8.943693486E-1,9.616424417E-1,-1.840344468E0,2.260867196E0
5.276440375E0,2.750026798E0,-7.574833989E-1,-4.180539044E0,5.060961883E0
5.286457375E0,5.592078245E0,-2.912316853E0,-7.074321685E0,9.476231099E0
5.296474375E0,7.400196953E0,-5.210836861E0,-8.423459108E0,1.236407696E1
5.306490375E0,7.236450357E0,-5.391448581E0,-6.123967878E0,1.090582020E1
5.316507375E0,6.214307359E0,-3.363030176E0,-2.241552632E0,7.412971477E0
5.326523375E0,5.525617622E0,-1.400498196E0,-8.023914769E-1,5.756533452E0
5.336540375E0,4.928812201E0,-1.055127141E0,-1.880952504E0,5.380006070E0
5.346557375E0,5.574513794E0,-1.793746253E0,-2.975092560E0,6.568402043E0
5.356573375E0,6.360349756E0,-2.366529558E0,-2.288206396E0,7.161731612E0
5.366590375E0,5.392462488E0,-2.262478355E0,-1.600644002E0,6.062963073E0
5.376607375E0,3.977243050E0,-1.953451254E0,-2.272796352E0,4.979963588E0
5.386623375E0,2.568685344E0,-2.251710708E0,-2.595828997E0,4.290299953E0
5.396640375E0,1.675570808E0,-3.465439480E0,-1.897285824E0,4.291445190E0
5.406657375E0,2.418071302E0,-4.131906874E0,-1.592868083E0,5.045488278E0
5.416673375E0,2.973097198E0,-4.039143137E0,2.914068094E-1,5.023833412E0
5.426690375E0,6.247630057E-1,-2.913603825E0,4.777713132E0,5.630804457E0
5.436706375E0,-3.114594846E0,-2.425337929E0,7.832366416E0,8.770913796E0
5.446723375E0,-4.188837705E0,-2.557845776E0,5.778625474E0,7.581652109E0
5.456740375E0,-3.701745637E0,-1.944727793E0,-1.796100926E-1,4.185349058E0
5.466756375E0,-5.756707771E0,-2.103693706E-1,-2.608682638E0,6.323698660E0
5.476773375E0,-9.522353243E0,1.532198542E0,-2.457940249E0,9.953105742E0
5.486790375E0,-1.005370025E1,2.503333354E0,-9.994996548E-2,1.036115615E1
5.496806375E0,-7.445930366E0,1.730417399E0,5.179647228E0,9.233903226E0
5.506823375E0,-5.776125205E0,6.368646955E-1,6.094286826E0,8.420780898E0
5.516840375E0,-5.216848383E0,-8.420820844E-1,5.288165703E0,7.475915047E0
5.526856375E0,-4.339157632E0,-2.801747174E0,5.142517408E0,7.288591186E0
5.536873375E0,-3.281111854E0,-4.441697037E0,5.154841000E0,7.554253987E0
5.546889375E0,-3.507730929E0,-4.181731583E0,5.191566192E0,7.532822501E0
5.556906375E0,-3.437845885E0,-1.739518590E0,4.500606565E0,5.924539536E0
5.566923375E0,-2.937882049E0,3.226815194E-1,3.127006731E0,4.302725345E0
5.576939375E0,-2.728054131E0,8.532561135E-1,2.057910007E0,3.522118529E0
5.586956375E0,-2.317142513E0,7.813862318E-1,1.354397432E0,2.795372295E0
5.596973375E0,-1.580334576E0,5.283625925E-1,7.910182770E-1,1.844541763E0
5.606989375E0,-3.697817186E-1,3.601311815E-1,5.631068210E-1,7.638862998E-1
5.617006375E0,5.418850826E-1,4.300656348E-1,5.840738399E-1,9.053939162E-1
5.627023375E0,7.489095535E-1,-5.779914200E-2,8.880774522E-1,1.163137060E0
5.637039375E0,-2.598794997E-2,-5.091346085E-1,1.000156882E0,1.122589512E0
5.647056375E0,-7.171066938E-1,-4.620428878E-1,-9.644397497E-2,8.585028135E-1
5.657073375E0,-8.948405611E-1,7.189444005E-1,-3.032947251E0,3.242898350E0
5.667089375E0,7.995101152E-1,1.932123535E0,-9.576639962E-1,2.299877846E0
5.677106375E0,1.966630878E0,2.113245717E0,2.323007562E0,3.705375636E0
5.687122375E0,2.424979202E0,1.797258675E0,2.332257857E0,3.814457968E0
5.697139375E0,2.474304560E0,1.403833448E0,1.276075879E0,3.117900103E0
5.707156375E0,2.039546534E0,1.440671491E0,4.594748272E-1,2.538976472E0
5.717172375E0,1.785074832E0,1.451691738E0,-5.472233713E-1,2.365027373E0
5.727189375E0,1.678617792E0,1.095934274E0,-1.379103234E0,2.433260232E0
5.737206375E0,1.897368708E0,9.356562459E-1,-1.399194267E0,2.536376396E0
5.747222375E0,2.411860682E0,1.080892897E0,-7.644480906E-1,2.751323733E0
5.757239375E0,2.816663129E0,1.528365692E0,-2.736000643E-1,3.216263339E0
5.767255375E0,2.955382473E0,1.589656792E0,-1.477714918E-1,3.359037167E0
5.777272375E0,2.814839382E0,1.460745567E0,-1.981159455E-1,3.177475144E0
5.787289375E0,2.433014885E0,1.454511266E0,-3.726249272E-1,2.859023223E0
5.797305375E0,1.751655071E0,1.538957924E0,-8.310736777E-1,2.475352588E0
5.807322375E0,1.352455279E0,1.450834537E0,-1.066374991E0,2.251935114E0
5.817339375E0,9.739103387E-1,1.131961309E0,-8.711311980E-1,1.728787817E0
5.827355375E0,5.363250384E-1,6.625643778E-1,-7.752741373E-1,1.152252615E0
5.837372375E0,1.990693522E-1,1.179465258E-1,-1.016840742E0,1.042835119E0
5.847389375E0,-1.668214280E-1,-3.055310512E-1,-1.644032974E0,1.680482975E0
5.857405375E0,-3.463945370E-1,-4.455899924E-1,-2.579334878E0,2.640361345E0
5.867422375E0,-1.511039022E-1,-7.368895054E-1,-3.684801576E0,3.760797945E0
5.877438375E0,7.310332265E-1,-1.499902616E0,-3.849850640E0,4.195886960E0
5.887455375E0,1.773718223E0,-2.217869362E0,-3.199746094E0,4.278246827E0
5.897472375E0,2.543021038E0,-2.749881787E0,-2.610298224E0,4.565354604E0
5.907488375E0,3.484997247E0,-2.792046059E0,-2.331863901E0,5.037689575E0
5.917505958E0,4.556219726E0,-2.511420053E0,-1.955963218E0,5.558071696E0
5.927522958E0,5.173669619E0,-2.237318371E0,-1.641611349E0,5.870889084E0
5.937538958E0,5.221826118E0,-2.188116975E0,-1.742597734E0,5.923847631E0
5.947555958E0,4.882587915E0,-2.381766232E0,-2.248926556E0,5.879638236E0
5.957572958E0,4.791435085E0,-2.850758536E0,-2.743471484E0,6.213799980E0
5.967588958E0,4.585919488E0,-3.051632613E0,-3.167817957E0,6.354383508E0
5.977605958E0,4.270871217E0,-3.117535411E0,-3.475145858E0,6.327401261E0
5.987621958E0,4.202323138E0,-3.830802165E0,-3.034883264E0,6.445547410E0
5.997638958E0,3.852771032E0,-3.817803805E0,-1.917101745E0,5.752803631E0
6.007655958E0,3.154980688E0,-2.673329455E0,-1.398763473E0,4.365447602E0
6.017671958E0,2.695807906E0,-1.249475725E0,-1.704744175E0,3.425598131E0
6.027688958E0,2.090106238E0,-1.768613166E-1,-3.140132561E0,3.776275481E0
6.037705958E0,2.385335080E0,-4.133262259E-1,-5.705745193E0,6.198079560E0
6.047721958E0,3.483681623E0,-1.284621000E0,-5.991424947E0,7.048649634E0
6.057738958E0,3.128891581E0,-1.786808531E0,-2.997031898E0,4.686666987E0
6.067755958E0,2.101137449E0,-1.828447723E0,-3.069530940E-1,2.802181268E0
6.077771958E0,2.009772220E0,-2.791166053E0,1.075043927E0,3.603541557E0
6.087788958E0,6.109345599E-1,-2.918924791E0,3.213893432E0,4.384344189E0
6.097804958E0,-1.275379183E0,-1.971065991E0,6.146719394E0,6.579806419E0
6.107821958E0,-6.355187396E-1,-3.614388528E0,6.482487566E0,7.449183415E0
6.117838958E0,-8.836826849E-1,-4.746165649E0,5.215050949E0,7.106598332E0
6.127854958E0,-1.653919154E0,-5.313218098E0,3.721658038E0,6.694510712E0
6.137871958E0,-1.391143089E0,-6.061479853E0,1.562864850E0,6.412438198E0
6.147888958E0,-9.638925965E-1,-7.441440874E0,-5.522812128E-1,7.523904954E0
6.157904958E0,-3.092852267E0,-8.392872908E0,-1.368085910E0,9.048630275E0
6.167921958E0,-4.777173142E0,-7.789830846E0,-7.175151949E-1,9.166115638E0
6.177938958E0,-4.552918096E0,-5.994753767E0,-1.462707893E0,7.668484224E0
6.187954958E0,-5.167729433E0,-3.172828436E0,-1.079195011E0,6.159296197E0
6.197971958E0,-5.527134390E0,-9.049981248E-1,1.966101851E0,5.935805982E0
6.207987958E0,-5.473897246E0,6.128805864E-1,4.818333739E0,7.318163273E0
6.218004958E0,-4.661242151E0,1.872973101E0,6.411605279E0,8.145175805E0
6.228021958E0,-4.182791391E0,2.391451560E0,4.017683855E0,6.273481326E0
6.238037958E0,-3.713025209E0,3.040566173E0,7.505705282E-2,4.799711701E0
6.248054958E0,-2.517226923E0,3.847067950E0,-1.063379463E0,4.718806955E0
6.258071958E0,-2.581277323E0,4.500000794E0,-1.305041523E-1,5.189415295E0
6.268087958E0,-2.486959104E0,4.841886908E0,6.383053033E-1,5.480535382E0
6.278104958E0,-2.554162323E0,4.591396283E0,5.180738318E-1,5.279494814E0
6.288121958E0,-2.394252961E0,4.768751689E0,9.771590517E-1,5.424783842E0
6.298137958E0,-1.601728661E0,5.249830772E0,2.108725527E0,5.879879352E0
6.308154958E0,-1.203870659E0,5.254318510E0,2.785963200E0,6.067846284E0
6.318171958E0,-1.126063515E0,4.957750656E0,2.931493381E0,5.868642437E0
6.328187958E0,-2.081835352E0,4.830116463E0,2.684597039E0,5.905177791E0
6.338204958E0,-3.695442339E0,5.351990401E0,2.469187953E0,6.956794124E0
6.348220958E0,-4.600691309E0,5.857133115E0,2.526825128E0,7.864935732E0
6.358237958E0,-5.283242347E0,5.750158305E0,2.423356308E0,8.176162059E0
6.368254958E0,-5.184861774E0,5.477316113E0,2.128374803E0,7.836693354E0
6.378270958E0,-4.358442919E0,4.978366184E0,1.794989371E0,6.855810775E0
6.388287958E0,-3.198901756E0,4.154385325E0,1.751397793E0,5.528045234E0
6.398304958E0,-1.802250443E0,3.094907856E0,1.953066215E0,4.079341728E0
6.408320958E0,-2.768370098E-1,2.096013388E0,1.939323504E0,2.868952161E0
6.418337958E0,1.768576913E0,8.724607086E-1,5.635818341E-1,2.051018398E0
6.428353958E0,3.565727414E0,-6.552641290E-1,-4.917528829E-1,3.658634167E0
6.438370958E0,4.931529402E0,-1.728630490E0,-1.909272616E0,5.563584055E0
6.448387958E0,5.550419172E0,-2.790637465E0,-4.324369147E0,7.569344685E0
6.458403958E0,5.272398101E0,-3.663917953E0,-5.319088118E0,8.337576081E0
6.468420958E0,4.630371191E0,-3.441687505E0,-5.642129241E0,8.069645136E0
6.478437958E0,4.544934892E0,-2.275137577E0,-4.974052109E0,7.111531378E0
6.488453958E0,4.605036375E0,-1.182721573E0,-4.480869874E0,6.533252265E0
6.498470958E0,4.580128698E0,-1.046793104E0,-4.419898617E0,6.450492887E0
6.508487958E0,3.645233468E0,-1.877752030E0,-4.253389504E0,5.908045531E0
6.518503958E0,1.566465273E0,-3.164754016E0,-3.785956652E0,5.177156479E0
6.528520958E0,-4.464928025E-1,-3.991892956E0,-3.494017746E0,5.323788614E0
6.538537958E0,-1.417685794E0,-4.000672551E0,-3.079679368E0,5.244009809E0
6.548553958E0,-1.052691776E0,-3.727299432E0,-2.818274329E0,4.789946891E0
6.558570958E0,1.194941669E0,-4.519740409E0,-2.067295081E0,5.111716728E0
6.568586958E0,3.710854722E0,-5.641350392E0,2.227768698E0,7.110431097E0
6.578603958E0,2.981323353E0,-5.262434446E0,7.488624980E0,9.626058868E0
6.588620958E0,-1.171218930E0,-3.311691037E0,7.327423092E0,8.125895672E0
6.598636958E0,-4.937774228E0,-9.545754969E-1,2.359773977E0,5.555300346E0
6.608653958E0,-7.913169090E0,1.347853959E0,-3.543620262E-1,8.034956613E0
6.618670958E0,-1.008344738E1,3.454640257E0,-8.365041330E-1,1.069159434E1
6.628686958E0,-1.017891370E1,5.147981046E0,-2.840286173E0,1.175496570E1
6.638703958E0,-8.588943497E0,4.871855643E0,-7.934541540E-1,9.906285747E0
6.648719958E0,-5.990729713E0,1.827480009E0,4.971599786E0,7.996582402E0
6.658736958E0,-4.907559326E0,-2.212809182E0,6.433830546E0,8.388971243E0
6.668753958E0,-3.668982226E0,-4.540161810E0,5.452933223E0,7.988052364E0
6.678769958E0,-2.178104641E0,-5.089038189E0,4.689436548E0,7.254878679E0
6.688786958E0,-1.762992383E0,-4.665299826E0,4.255362647E0,6.556010667E0
6.698803958E0,-2.277647641E0,-2.817841635E0,3.992117490E0,5.391188395E0
6.708819958E0,-3.028263631E0,-8.432369095E-1,3.878637067E0,4.992519865E0
6.718836958E0,-3.370011166E0,6.152615726E-1,3.379601769E0,4.812195984E0
6.728853958E0,-3.123127396E0,1.196615726E0,2.500705615E0,4.176043882E0
6.738869958E0,-2.171709688E0,1.261119871E0,1.762250079E0,3.067942574E0
6.748886958E0,-9.330141816E-1,8.751480889E-1,1.253776352E0,1.791188092E0
6.758902958E0,3.078322960E-1,1.350864691E-1,1.328459330E0,1.370333269E0
6.768919958E0,4.438486185E-1,-3.260185254E-1,1.428438531E0,1.530923353E0
6.778936958E0,-6.268843755E-2,-1.069449311E0,1.060741053E0,1.507588554E0
6.788952958E0,-1.452901527E-1,-1.631045723E0,6.849954665E-1,1.775003709E0
6.798969958E0,2.345588632E-2,-1.389082092E0,-2.192038922E-1,1.406467057E0
6.808986958E0,5.966293468E-1,-4.277355194E-1,-1.753791643E0,1.901238907E0
6.819002958E0,1.416402038E0,6.352543724E-1,-1.266071877E0,2.003167704E0
6.829019958E0,1.628540630E0,1.663120624E0,2.624873579E-1,2.342437706E0
6.839036958E0,1.673001103E0,2.314770589E0,7.639656222E-1,2.956474090E0
6.849052958E0,1.787469267E0,2.051610802E0,8.255794877E-1,2.843542641E0
6.859069958E0,2.431896751E0,2.556347135E0,4.118948275E-1,3.552279526E0
6.869085958E0,3.016794025E0,3.134870651E0,-5.700380373E-1,4.387870048E0
6.879102958E0,3.069940830E0,2.648699813E0,-1.592024914E0,4.355994803E0
6.889119958E0,3.159006788E0,1.918167985E0,-1.775812842E0,4.100268718E0
6.899135958E0,3.181570609E0,1.531857650E0,-1.208621303E0,3.732257340E0
6.909152958E0,3.144170355E0,1.465512217E0,-7.582815439E-1,3.550848375E0
6.919169750E0,3.036887397E0,1.690636452E0,-4.537731707E-1,3.505259871E0
6.929185750E0,2.360406061E0,1.934722622E0,-3.056410519E-1,3.067260154E0
6.939202750E0,1.728691155E0,1.700670859E0,-3.683115093E-1,2.452816309E0
6.949219750E0,1.957969982E0,1.145328628E0,-4.225917238E-1,2.307381174E0
6.959235750E0,2.484289850E0,8.373844314E-1,-3.633950973E-1,2.646689392E0
6.969252750E0,2.307937972E0,1.038841476E0,-2.098127156E-1,2.539643808E0
6.979268750E0,1.980835080E0,1.090958878E0,-3.602082185E-1,2.289901494E0
6.989285750E0,1.618215909E0,1.128639506E0,-7.882790758E-1,2.124578490E0
6.999302750E0,1.411774259E0,1.071167223E0,-1.241958106E0,2.164016108E0
7.009318750E0,9.625681291E-1,5.904951060E-1,-2.039039873E0,2.330859386E0
7.019335750E0,7.412206111E-1,-9.111423790E-2,-3.120987900E0,3.209092593E0
7.029352750E0,7.329825421E-1,-7.100806063E-1,-4.003462257E0,4.131487374E0
7.039368750E0,1.053608180E0,-1.514387923E0,-4.236686640E0,4.620927901E0
7.049385750E0,1.640961139E0,-2.165546138E0,-3.877736304E0,4.734889901E0
7.059402750E0,2.298202942E0,-2.316923534E0,-3.177183443E0,4.554598342E0
7.069418750E0,2.870892546E0,-2.357381004E0,-2.685480554E0,4.583783919E0
7.079435750E0,3.714468009E0,-2.115217398E0,-2.220907575E0,4.817037232E0
7.089451750E0,4.587741188E0,-1.620916007E0,-1.778476249E0,5.180513071E0
7.099468750E0,4.985186961E0,-1.502978836E0,-1.891229424E0,5.539655509E0
7.109485750E0,5.159411768E0,-1.589754440E0,-2.399975339E0,5.908191822E0
7.119501750E0,5.616611992E0,-1.851336649E0,-2.525459803E0,6.430530684E0
7.129518750E0,6.102757103E0,-2.260521292E0,-2.450212569E0,6.953929997E0
7.139535750E0,6.037357165E0,-2.752680849E0,-2.774754673E0,7.192092664E0
7.149551750E0,5.148290364E0,-2.998455695E0,-3.863502134E0,7.100864663E0
7.159568750E0,4.335137964E0,-2.541606889E0,-5.336178945E0,7.329938095E0
7.169585750E0,4.575747380E0,-1.962409188E0,-5.425962356E0,7.364073696E0
7.179601750E0,4.179572207E0,-1.347455764E0,-3.692938269E0,5.737791729E0
7.189618750E0,2.754195862E0,-2.033468646E-1,-1.738345639E0,3.263248436E0
7.199635750E0,1.078205589E0,7.556783634E-1,-2.519266651E-1,1.340538745E0
7.209651750E0,1.403640490E0,-5.915505284E-1,8.728583193E-1,1.755568369E0
7.219668750E0,1.205401241E0,-3.369419428E0,1.200562012E0,3.774563363E0
7.229684750E0,5.804085128E-1,-5.686107320E0,2.328096979E0,6.171606439E0
7.239701750E0,5.090157638E-1,-7.441036831E0,3.933733041E0,8.432222827E0
7.249718750E0,3.647873924E-1,-9.238214815E0,4.973863828E0,1.049842865E1
7.259734750E0,1.149102129E-1,-1.054415301E1,5.238453845E0,1.177428408E1
7.269751750E0,-5.624657468E-1,-1.041366654E1,4.790849487E0,1.147663093E1
7.279768750E0,-1.144575653E0,-8.686957449E0,4.039088173E0,9.648187209E0
7.289784750E0,-1.290461783E0,-6.268967131E0,2.859960884E0,7.010322158E0
7.299801750E0,-1.758893339E0,-4.592297924E0,2.157290746E0,5.369991561E0
7.309817750E0,-2.043506561E0,-3.521920075E0,1.485425495E0,4.334319898E0
7.319834750E0,-2.730475463E0,-2.839051825E0,6.192986365E-1,3.987385399E0
7.329851750E0,-3.228149529E0,-2.183599416E0,5.724963529E-1,3.939137959E0
7.339867750E0,-3.659503890E0,-1.234157190E0,1.445145488E0,4.123537094E0
7.349884750E0,-3.932926126E0,-1.781991595E-1,2.252501982E0,4.535794090E0
7.359901750E0,-4.003821569E0,1.164374179E0,2.626443264E0,4.927936546E0
7.369917750E0,-4.376869542E0,2.405709411E0,2.904968949E0,5.777825660E0
7.379934750E0,-4.858471951E0,2.822484325E0,2.944422745E0,6.343563096E0
7.389951750E0,-4.552382491E0,3.114515909E0,2.680702794E0,6.132745157E0
7.399967750E0,-4.602358350E0,3.692160004E0,2.001471658E0,6.230540641E0
7.409984750E0,-4.109174654E0,4.037940949E0,2.181642645E0,6.160344802E0
7.420000750E0,-3.578662917E0,4.581095243E0,1.838906930E0,6.097117401E0
7.430017750E0,-3.619956539E0,4.628145449E0,1.782182945E0,6.140031896E0
7.440034750E0,-2.895544699E0,5.597330799E0,2.947693677E0,6.957240055E0
7.450050750E0,-2.227867224E0,6.367963416E0,3.823774104E0,7.754714620E0
7.460067750E0,-2.910003110E0,6.278661230E0,2.887327023E0,7.498423986E0
7.470084750E0,-4.056138069E0,6.363151157E0,2.343920421E0,7.901639806E0
7.480100750E0,-5.320350532E0,6.614485536E0,3.223579345E0,9.080143858E0
7.490117750E0,-5.705984929E0,6.941224439E0,4.208216254E0,9.922093769E0
7.500134750E0,-6.090949236E0,6.858494523E0,4.201334666E0,1.008909425E1
7.510150750E0,-5.618798851E0,6.319068414E0,3.464293133E0,9.137989552E0
7.520167750E0,-4.414263656E0,5.469153984E0,2.743612402E0,7.544851088E0
7.530184750E0,-2.859694836E0,4.483052639E0,2.349199580E0,5.813291166E0
7.540200750E0,-1.690889782E0,2.828892288E0,1.587012973E0,3.657916075E0
7.550217750E0,5.977111548E-2,9.050004637E-1,-5.241543514E-1,1.047538166E0
7.560233750E0,2.224450550E0,-1.279416393E0,-3.035897171E0,3.975142537E0
7.570250750E0,4.313873979E0,-3.415289665E0,-5.564510962E0,7.825438930E0
7.580267750E0,4.726739445E0,-4.925286915E0,-7.253713092E0,9.960766566E0
7.590283750E0,4.106887515E0,-5.391238081E0,-7.070151451E0,9.793825333E0
7.600300750E0,4.062798925E0,-4.316666025E0,-6.057679163E0,8.475577710E0
7.610317750E0,4.230528352E0,-2.479429936E0,-3.798358305E0,6.202617896E0
7.620333750E0,4.235454339E0,-1.202400377E0,-2.836888940E0,5.237631047E0
7.630350750E0,4.833729458E0,-1.631693594E0,-2.839458207E0,5.838654585E0
7.640366750E0,6.229241733E0,-2.993741670E0,-3.037905689E0,7.549490892E0
7.650383750E0,6.686687540E0,-3.836613713E0,-2.864391904E0,8.224119164E0
7.660400750E0,5.317958436E0,-3.176113402E0,-1.361368921E0,6.342058310E0
7.670416750E0,3.411288416E0,-1.029485931E0,-8.185294998E-1,3.656052582E0
7.680433750E0,1.786233750E0,1.171434692E0,-6.422409180E-1,2.230552318E0
7.690450750E0,7.871004233E-1,1.323012064E0,-3.225674987E-1,1.572875643E0
7.700466750E0,6.818809471E-1,-3.436250764E-1,1.243647221E-1,7.736319559E-1
7.710483750E0,1.171609232E0,-2.761985523E0,1.712126139E-1,3.005086684E0
7.720500750E0,1.636615781E0,-5.346518576E0,2.025242929E0,5.946879940E0
7.730516750E0,1.348800623E-1,-6.000407440E0,6.769561297E0,9.047101316E0
7.740533750E0,-1.927065986E0,-6.160504789E0,6.649413879E0,9.267152071E0
7.750550750E0,-3.657743293E-1,-7.488740171E0,-1.985605531E0,7.756136250E0
7.760566750E0,-2.264807594E0,-5.604086671E0,-3.578263845E0,7.024180593E0
7.770583750E0,-9.270736443E0,2.113604736E-1,-1.327306259E-1,9.274095367E0
7.780599750E0,-1.247079185E1,5.782800386E0,-5.187194813E0,1.469246133E1
7.790616750E0,-1.193359997E1,8.560288632E0,-3.670445784E0,1.513808184E1
7.800633750E0,-9.941041950E0,6.311018552E0,2.138588719E0,1.196774130E1
7.810649750E0,-7.349050773E0,2.100193563E0,6.612599809E0,1.010672234E1
7.820666750E0,-5.423904721E0,-1.654155089E0,8.092975649E0,9.881863505E0
7.830683750E0,-4.686761447E0,-4.496162682E0,7.842304344E0,1.018248246E1
7.840699750E0,-4.397535356E0,-6.453332765E0,7.662790146E0,1.094084886E1
7.850716750E0,-4.422688324E0,-5.749530314E0,7.156094996E0,1.018955183E1
7.860733750E0,-3.631148694E0,-3.213249654E0,6.530985543E0,8.134124804E0
7.870749750E0,-2.065335679E0,-9.971976060E-1,4.139193674E0,4.732117793E0
7.880766750E0,2.598771608E-1,8.446080816E-1,-3.907636918E0,4.006310676E0
7.890782750E0,7.253956336E-1,1.160554778E0,-3.899887018E0,4.133062421E0
7.900799750E0,-1.462017336E-1,6.823905319E-1,1.176038936E0,1.367515764E0
7.910816750E0,1.647224969E-1,9.367490906E-1,1.257115113E0,1.576379004E0
7.920833208E0,2.200991374E-1,2.104939163E-1,3.893551268E-2,3.070297921E-1
7.930850208E0,2.528222027E-1,-5.292221332E-1,-1.039135664E0,1.193230095E0
7.940867208E0,4.846154791E-1,-7.135561913E-1,4.910456622E-1,9.925424138E-1
7.950883208E0,5.853574499E-3,-3.923657119E-2,2.205335855E0,2.205692637E0
7.960900208E0,-6.689625473E-1,1.060310113E0,1.949510815E0,2.317835379E0
7.970917208E0,-1.164188676E-1,1.506013541E0,1.283245150E0,1.982006118E0
7.980933208E0,3.432602102E-1,1.719563797E0,9.327712297E-1,1.986149388E0
7.990950208E0,6.936013985E-1,2.294170849E0,6.154948765E-1,2.474497267E0
8.000967208E0,1.192555785E0,3.345314866E0,7.452907848E-1,3.628881261E0
8.010983208E0,1.220158371E0,3.954423999E0,9.441820711E-1,4.244730309E0
8.021000208E0,1.381286438E0,2.564503416E0,1.987099860E-1,2.919608818E0
8.031016208E0,1.133840823E0,1.933974178E0,-6.100359525E-1,2.323358560E0
8.041033208E0,6.161942035E-1,1.322938973E0,-9.990822367E-1,1.768623233E0
8.051050208E0,6.773263315E-1,3.773395371E-1,-1.490444745E0,1.680054054E0
8.061066208E0,1.251686850E0,3.767173934E-1,-2.074887398E0,2.452303749E0
8.071083208E0,1.335759578E0,4.237944961E-1,-2.201655618E0,2.609816638E0
8.081100208E0,8.207898872E-1,7.304376876E-1,-1.745762101E0,2.062745880E0
8.091116208E0,2.481896000E-1,1.266579416E0,-9.394271153E-1,1.596353595E0
8.101133208E0,-2.777707736E-1,1.698184038E0,-3.395665240E-1,1.753935875E0
8.111150208E0,-4.418458740E-1,1.450290161E0,-4.546449906E-1,1.582804914E0
8.121166208E0,-1.957633548E-1,1.044632558E0,-1.226500846E0,1.622924766E0
8.131183208E0,3.511635261E-1,2.788443589E-1,-2.409631138E0,2.450998209E0
8.141200208E0,1.321550260E0,-1.480854142E-1,-3.498065189E0,3.742310041E0
8.151216208E0,2.098922378E0,1.968962163E-1,-3.627629548E0,4.195704876E0
8.161233208E0,2.493938633E0,3.376328498E-1,-2.895137148E0,3.836084586E0
8.171249208E0,2.793893487E0,-2.723925412E-1,-2.268375418E0,3.609094838E0
8.181266208E0,3.034442384E0,-1.162473249E0,-2.158555207E0,3.901095387E0
8.191283208E0,3.116969693E0,-1.961797569E0,-1.921242597E0,4.153952682E0
8.201299208E0,3.289300002E0,-3.050142742E0,-1.576392383E0,4.754774253E0
8.211316208E0,3.615580190E0,-3.817796203E0,-1.413513075E0,5.444814705E0
8.221333208E0,3.974933400E0,-3.742281168E0,-1.745067013E0,5.731493937E0
8.231349208E0,4.077891465E0,-3.676200614E0,-2.503867497E0,6.034318702E0
8.241366208E0,3.777173550E0,-3.848301712E0,-3.100146376E0,6.219917495E0
8.251383208E0,3.749977565E0,-4.029936111E0,-3.594514427E0,6.574439197E0
8.261399208E0,3.850291227E0,-4.392695031E0,-3.898253306E0,7.022598594E0
8.271416208E0,4.279202914E0,-4.249380360E0,-3.736778353E0,7.094527714E0
8.281433208E0,5.153554612E0,-3.977349762E0,-2.821347041E0,7.094958449E0
8.291449208E0,5.726422702E0,-3.457777873E0,-2.737400320E0,7.227828533E0
8.301466208E0,5.772732065E0,-2.429343272E0,-3.295549214E0,7.077202050E0
8.311482208E0,5.517996361E0,-1.337505557E0,-4.366021788E0,7.162356540E0
8.321499208E0,4.628118844E0,-1.104733749E0,-5.413979073E0,7.207710461E0
8.331516208E0,4.009310350E0,-1.520602344E0,-4.853743892E0,6.476544661E0
8.341532208E0,3.733601853E0,-1.595920914E0,-3.042996860E0,5.074108419E0
8.351549208E0,3.183079483E0,-1.442685857E0,-1.203681429E0,3.696239502E0
8.361566208E0,2.060396536E0,-1.739561859E0,3.294906020E-2,2.696737842E0
8.371582208E0,4.757097311E-1,-2.276018168E0,1.357109517E0,2.692267574E0
8.381599208E0,-1.495843479E0,-3.287358434E0,2.703875309E0,4.511675396E0
8.391616208E0,-3.310207599E0,-4.450960781E0,4.432140348E0,7.100168610E0
8.401632208E0,-3.304241100E0,-5.364941983E0,5.316150477E0,8.243910942E0
8.411649208E0,-2.498845324E0,-5.941669820E0,4.869061843E0,8.078083401E0
8.421666208E0,-1.531999006E0,-5.491734762E0,3.177307988E0,6.526979217E0
8.431682208E0,-8.778881673E-1,-5.095716294E0,1.144601746E0,5.295953676E0
8.441699208E0,-1.403354268E0,-5.049765950E0,-4.983640373E-1,5.264779774E0
8.451716208E0,-2.538258773E0,-4.576287078E0,-1.308240827E0,5.394131541E0
8.461732208E0,-3.521141226E0,-3.765533790E0,-1.002369395E0,5.251897244E0
8.471749208E0,-3.985767998E0,-2.813854419E0,-4.152239397E-2,4.879123624E0
8.481766208E0,-4.174447122E0,-1.353443897E0,1.666820158E0,4.694263371E0
8.491782208E0,-3.945298834E0,-4.156200886E-2,2.987409135E0,4.948911358E0
8.501799208E0,-3.964040914E0,8.780126399E-1,3.093780513E0,5.104508245E0
8.511815208E0,-4.467254047E0,1.899440523E0,2.426103330E0,5.426804805E0
8.521832208E0,-4.991414246E0,2.442667907E0,2.335162754E0,6.027754786E0
8.531849208E0,-4.478936200E0,2.820983929E0,2.898211030E0,6.034769837E0
8.541865208E0,-2.023863863E0,3.110272000E0,2.537787488E0,4.495573621E0
8.551882208E0,-3.154771650E-1,3.041882381E0,1.689666253E0,3.493929923E0
8.561899208E0,-8.442496473E-1,2.823856081E0,1.050230098E-1,2.949228792E0
8.571915208E0,-1.281488646E0,3.239333498E0,8.824666102E-1,3.593639100E0
8.581932208E0,-1.434326970E0,4.121659629E0,2.312138758E0,4.938760734E0
8.591949208E0,-2.388618877E0,4.568309721E0,2.883152111E0,5.906565833E0
8.601965208E0,-3.280131568E0,4.915866466E0,2.950078171E0,6.605147041E0
8.611982208E0,-3.873337443E0,5.418061599E0,2.825775138E0,7.234855877E0
8.621999208E0,-4.205811295E0,5.516103033E0,2.885144842E0,7.512676093E0
8.632015208E0,-4.922795416E0,5.355136787E0,2.473091555E0,7.682941270E0
8.642032208E0,-5.635008502E0,5.506798359E0,2.210998007E0,8.183316025E0
8.652049208E0,-5.646428699E0,5.690761119E0,2.277299877E0,8.333847484E0
8.662065208E0,-5.355026275E0,5.436710708E0,2.269960160E0,7.961585826E0
8.672082208E0,-4.973138773E0,4.749617845E0,1.906484663E0,7.136221879E0
8.682099208E0,-4.273187883E0,4.003270469E0,1.230595358E0,5.983366450E0
8.692115208E0,-3.108510234E0,2.771622319E0,5.251735210E-1,4.197681906E0
8.702132208E0,-1.416137305E0,1.975565423E0,1.343734011E-1,2.434411596E0
8.712148208E0,8.601274690E-1,9.004238480E-1,-6.449385309E-1,1.402329518E0
8.722165208E0,2.463154212E0,-8.556920636E-1,-2.384403327E0,3.533371874E0
8.732182208E0,4.090022099E0,-3.027151490E0,-4.739858258E0,6.954004833E0
8.742198208E0,6.233152351E0,-4.686557963E0,-6.256606117E0,9.998056505E0
8.752215208E0,7.462801337E0,-4.814972759E0,-5.751966848E0,1.058123287E1
8.762232208E0,7.878129650E0,-4.023096038E0,-4.513328937E0,9.930778751E0
8.772248208E0,8.116422983E0,-3.735072720E0,-3.731767874E0,9.682622668E0
8.782265208E0,6.883269761E0,-4.236202490E0,-3.561754231E0,8.832378351E0
8.792282208E0,5.280771314E0,-4.582538336E0,-2.930301134E0,7.581086202E0
8.802298208E0,3.515889257E0,-3.380412194E0,-2.116752000E0,5.316888460E0
8.812315208E0,1.637890766E0,-5.564496928E-1,-1.737232329E0,2.451591031E0
8.822332208E0,2.663459355E-1,2.319752417E0,-1.049894760E0,2.560170002E0
8.832348208E0,-6.012188995E-1,4.408367908E0,-3.230098405E-1,4.460886362E0
8.842365208E0,-1.287916198E0,5.374662979E0,-9.638930351E-2,5.527659647E0
8.852382208E0,-1.535748972E0,3.978901028E0,1.564573406E0,4.542914069E0
8.862398208E0,-2.831091134E0,4.103032154E-1,3.511601786E0,4.529323662E0
8.872415208E0,-3.874568282E0,-3.380810389E0,4.625195528E0,6.916255630E0
8.882431208E0,-3.575541674E0,-6.869367421E0,5.863244040E0,9.713410199E0
8.892448208E0,-1.340086518E0,-1.252265783E1,9.127736060E-1,1.262719076E1
8.902465208E0,6.315949509E0,-1.751620221E1,-9.475310054E0,2.089234450E1
8.912481208E0,1.644202835E0,-1.198600622E1,-2.998460957E-1,1.210196909E1
8.922498208E0,-8.276879936E0,-9.427600282E-1,3.797123373E-1,8.339047872E0
8.932515208E0,-1.300827143E1,7.785772294E0,-9.591433418E0,1.793959227E1
8.942531208E0,-1.239672985E1,9.965560495E0,-6.371951802E0,1.713455797E1
8.952548208E0,-8.262706286E0,7.279494050E0,2.937615416E0,1.139705809E1
8.962565208E0,-5.302491381E0,3.788122754E0,8.246703626E0,1.051068074E1
8.972581208E0,-4.598276702E0,6.213666505E-1,7.576298132E0,8.884286045E0
8.982598208E0,-3.559011887E0,-2.951604879E0,7.008834039E0,8.396564271E0
8.992615208E0,-2.398851065E0,-5.190706651E0,7.730491548E0,9.615530227E0
9.002631208E0,-1.467429227E0,-5.047448698E0,7.607460283E0,9.246812362E0
9.012648208E0,-4.481136507E-1,-3.666807647E0,6.467372514E0,7.448032720E0
9.022665208E0,-1.014541617E-1,-2.064528471E0,4.938041446E0,5.353206897E0
9.032681208E0,-4.250697738E-1,-4.564915413E-1,4.020969990E0,4.069062362E0
9.042698208E0,-8.417214574E-1,6.990749770E-1,3.096929823E0,3.284535761E0
9.052714208E0,-9.387291040E-1,1.054792095E0,1.996908345E0,2.445698598E0
9.062731208E0,-7.022216561E-1,1.080974173E0,5.369463416E-1,1.396399581E0
9.072748208E0,-3.030478849E-1,1.304947091E0,-6.150927050E0,6.295127362E0
9.082764208E0,-4.238767956E-1,8.697476006E-1,-5.794985983E0,5.875201696E0
9.092781208E0,-3.997976692E-1,6.180506945E-4,3.357623255E-1,5.220870593E-1
9.102798208E0,-1.449327417E-1,-8.780763745E-3,1.091892679E0,1.101504527E0
9.112814208E0,-7.121634576E-1,8.909402490E-2,3.531320643E-1,7.998854859E-1
9.122831208E0,-7.989515600E-1,-1.656989819E-1,-4.910082400E-1,9.522966132E-1
9.132848208E0,-7.000220067E-1,7.288916838E-1,-8.090190035E-1,1.294536846E0
9.142864208E0,-3.554379138E-1,1.853260968E0,-1.859098828E-1,1.896173729E0
9.152881208E0,-7.588304512E-2,2.825738885E0,8.971160781E-1,2.965699873E0
9.162897208E0,5.135418011E-1,2.282910866E0,1.578840027E0,2.822789938E0
9.172914208E0,1.013847041E0,1.621075051E0,1.571570184E0,2.474995553E0
9.182931208E0,8.213739509E-1,1.202819037E0,1.098551488E0,1.824347603E0
9.192947208E0,2.388010547E-1,1.505993661E0,3.708204764E-1,1.569251629E0
9.202964208E0,1.424557149E-1,1.937970750E0,-8.280522752E-1,2.112272433E0
9.212981208E0,1.120252917E0,1.847669275E0,-2.644274055E0,3.414825564E0
9.222997208E0,2.344193925E0,1.771204067E0,-2.792364732E0,4.053357843E0
9.233014208E0,2.704656497E0,1.736303206E0,-1.309644890E0,3.470603021E0
9.243031208E0,2.000985316E0,1.624143670E0,-7.229896505E-1,2.676658165E0
9.253047208E0,1.388368732E0,1.232391915E0,-9.098570149E-1,2.067413204E0
9.263064208E0,1.059083002E0,1.416026062E0,-1.057739677E0,2.060485340E0
9.273080208E0,1.217219122E0,1.545129660E0,-1.423794234E0,2.428217057E0
9.283097208E0,1.134178865E0,1.320049279E0,-1.924689969E0,2.594864790E0
9.293114208E0,1.155411055E0,8.231411988E-1,-1.963882686E0,2.422678548E0
9.303130208E0,1.427625476E0,3.410680890E-2,-1.911773470E0,2.386242983E0
9.313147208E0,1.801922122E0,-7.502591640E-1,-2.033843745E0,2.818924001E0
9.323164208E0,2.092870510E0,-1.154666632E0,-2.410806429E0,3.394900534E0
9.333180208E0,2.306302359E0,-7.660314435E-1,-2.738808330E0,3.661544184E0
9.343197208E0,2.599220089E0,-4.481048799E-1,-2.745694303E0,3.807306169E0
9.353213208E0,3.304769981E0,-1.070566129E0,-2.287589223E0,4.159408722E0
9.363230208E0,4.084124305E0,-1.826735659E0,-1.754503250E0,4.805758645E0
9.373247208E0,4.446402292E0,-2.209371019E0,-1.718983753E0,5.254209625E0
9.383263208E0,4.513668661E0,-2.151318693E0,-2.114042693E0,5.428678790E0
9.393280208E0,4.609713855E0,-1.800477567E0,-2.383798140E0,5.493056969E0
9.403297208E0,4.793009156E0,-1.721155994E0,-2.531433611E0,5.687132041E0
9.413313208E0,5.214620594E0,-1.734791116E0,-2.626664288E0,6.091069975E0
9.423330208E0,5.513916174E0,-1.920621477E0,-2.765776273E0,6.460772154E0
9.433347208E0,5.941992002E0,-2.514911426E0,-2.883362026E0,7.067236022E0
9.443363208E0,6.023140830E0,-3.440915673E0,-2.844845247E0,7.497417595E0
9.453380208E0,6.005360032E0,-3.755335076E0,-3.221640408E0,7.781121871E0
9.463396208E0,5.242960879E0,-3.219354147E0,-4.142093309E0,7.416860311E0
9.473413208E0,4.726343881E0,-2.494587089E0,-4.548508710E0,7.017850291E0
9.483430208E0,4.343345993E0,-2.040302871E0,-3.787886526E0,6.113556621E0
9.493446208E0,3.425459143E0,-1.512881681E0,-2.700951117E0,4.617111462E0
9.503463208E0,1.822276718E0,-1.268563376E0,-1.559947089E0,2.713554937E0
9.513480208E0,-8.068865240E-3,-1.402168161E0,-1.534163207E-1,1.410559189E0
9.523496208E0,-6.196481538E-1,-2.220971895E0,1.111934595E0,2.559898150E0
9.533513208E0,-9.207151482E-1,-3.661615904E0,2.400619994E0,4.474161795E0
9.543530208E0,-9.238735217E-1,-4.872909896E0,4.336230808E0,6.587995959E0
9.553546208E0,-5.039843079E-1,-5.698358991E0,5.144718300E0,7.693726129E0
9.563563208E0,-3.038409135E-1,-6.881099859E0,3.879672024E0,7.905296300E0
9.573579208E0,-8.729777487E-1,-7.240177372E0,2.566718341E0,7.731125505E0
9.583596208E0,-1.926977254E0,-6.533996859E0,1.862391980E0,7.062213546E0
9.593613208E0,-2.859739274E0,-5.561734704E0,1.322904475E0,6.392267038E0
9.603629208E0,-3.490890656E0,-4.736870331E0,8.800750259E-1,5.949688240E0
9.613646208E0,-3.093132057E0,-4.277728831E0,2.755535460E-1,5.286053313E0
9.623663208E0,-2.549045424E0,-3.425557376E0,1.579544909E-1,4.272824070E0
9.633679208E0,-2.658276967E0,-2.284474996E0,1.150708652E0,3.689091059E0
9.643696208E0,-2.574568228E0,-1.102010701E0,2.739811127E0,3.917830287E0
9.653712208E0,-3.232903315E0,-2.473600262E-1,3.028449572E0,4.436705719E0
9.663729208E0,-3.937816737E0,3.232715034E-1,2.550656040E0,4.702845027E0
9.673746208E0,-3.635683210E0,1.250720598E0,2.403428851E0,4.534199451E0
9.683762208E0,-3.438833187E0,1.965011199E0,1.732856419E0,4.323150942E0
9.693779208E0,-2.845582873E0,2.304364300E0,1.109371322E0,3.825982415E0
9.703796208E0,-1.938409292E0,2.536391172E0,9.313421702E-1,3.325373513E0
9.713812208E0,-2.059900399E0,3.118114870E0,9.337595554E-1,3.851978311E0
9.723829208E0,-1.831800517E0,4.111667322E0,1.333520826E0,4.694633009E0
9.733846208E0,-1.869593118E0,4.830549157E0,1.207913132E0,5.318706396E0
9.743862208E0,-2.490427380E0,5.199085711E0,1.227124597E0,5.893942275E0
9.753879208E0,-3.478677869E0,5.088114914E0,1.650919240E0,6.380881399E0
9.763895208E0,-4.594167571E0,5.158049367E0,2.466687684E0,7.334602721E0
9.773912208E0,-5.885124321E0,5.340266148E0,2.924773761E0,8.468024112E0
9.783929208E0,-6.979809630E0,5.293919948E0,3.021162772E0,9.266647472E0
9.793945208E0,-7.368563517E0,5.377970749E0,2.892710554E0,9.570061234E0
9.803962208E0,-6.853947728E0,5.862925951E0,3.095975558E0,9.536014095E0
9.813979208E0,-6.122340013E0,6.038961641E0,3.349029018E0,9.228656473E0
9.823995208E0,-5.390753932E0,5.848897896E0,3.002359881E0,8.501999730E0
9.834012208E0,-4.423877648E0,5.196831025E0,2.083098643E0,7.135618130E0
9.844028208E0,-3.440269555E0,3.903732147E0,7.647102651E-1,5.259216774E0
9.854045208E0,-1.890909728E0,2.068925577E0,-2.208107436E-1,2.811538729E0
9.864062208E0,-5.824879289E-2,8.137511551E-2,-1.266687005E0,1.270634015E0
9.874078208E0,2.213342594E0,-2.166823754E0,-3.983706855E0,5.046179835E0
9.884095208E0,5.280939714E0,-5.278618954E0,-7.719059072E0,1.073946066E1
9.894112208E0,7.675908374E0,-7.663946140E0,-8.771962516E0,1.395001671E1
9.904128208E0,7.875434668E0,-6.966900147E0,-5.582950741E0,1.190502028E1
9.914145000E0,6.093378754E0,-4.470017442E0,-2.146158232E0,7.855973251E0
9.924162000E0,3.417244390E0,-2.191303707E0,-9.438433711E-1,4.167758566E0
9.934178000E0,2.644504436E0,-8.807503062E-1,-2.002194082E0,3.431895388E0
9.944195000E0,4.190833359E0,-7.391441917E-1,-2.672386591E0,5.025044127E0
9.954211000E0,5.644167581E0,-6.498595476E-1,-1.617132566E0,5.907119674E0
9.964228000E0,4.555478007E0,-7.754606634E-1,8.782137841E-2,4.621842890E0
9.974245000E0,2.621866356E0,-4.701751953E-1,1.012712023E0,2.849707624E0
9.984261000E0,1.561642197E0,4.482615852E-1,8.919203885E-1,1.853425687E0
9.994278000E0,1.510750955E0,5.173557937E-2,9.448632717E-2,1.514586638E0
1.000429500E1,2.680440254E0,-1.886474322E0,3.369867325E-2,3.277908010E0
1.001431100E1,3.924364925E0,-3.413379965E0,1.883095801E0,5.531532576E0
1.002432800E1,3.314945013E0,-3.893571441E0,4.614136105E0,6.887598347E0
1.003434400E1,1.490816920E0,-4.667625264E0,5.189947683E0,7.137563845E0
1.004436100E1,3.454301119E-1,-5.854757976E0,3.223545139E-1,5.873791395E0
1.005437800E1,-1.397240420E0,-6.616519783E0,-6.567703718E0,9.426841833E0
1.006439400E1,-6.996599325E0,-4.150348992E0,-5.500443020E0,9.820013864E0
1.007441100E1,-1.293195941E1,1.116824037E0,-1.025221790E1,1.654058168E1
1.008442800E1,-1.275465663E1,5.120837687E0,-4.037001886E0,1.432486051E1
1.009444400E1,-8.576264395E0,5.651112903E0,6.924678572E0,1.238703198E1
1.010446100E1,-5.731373540E0,3.560407618E0,8.613277270E0,1.094137516E1
1.011447800E1,-5.079017231E0,4.399199474E-1,6.575799773E0,8.320522114E0
1.012449400E1,-4.943389894E0,-1.945124234E0,5.271158491E0,7.483697200E0
1.013451100E1,-3.820508434E0,-3.121709738E0,5.390728204E0,7.307619788E0
1.014452700E1,-2.876127850E0,-3.515040241E0,5.924859660E0,7.465358752E0
1.015454400E1,-2.705190348E0,-3.900938348E0,5.462046694E0,7.236665592E0
1.016456100E1,-2.042912484E0,-2.469701924E0,4.695631088E0,5.685232653E0
1.017457700E1,-1.527157804E0,-8.804041511E-1,4.147268679E0,4.506346627E0
1.018459400E1,-1.123999448E0,-1.022678018E-1,3.627420802E0,3.798949215E0
1.019461100E1,-6.909204501E-1,4.859960067E-1,3.145633621E0,3.257080605E0
1.020462700E1,-6.380264642E-1,5.114565378E-1,2.367839334E0,2.505060612E0
1.021464400E1,-9.175282694E-1,2.842004085E-1,-5.018150640E-1,1.083718762E0
1.022466000E1,-1.307831961E0,5.888461912E-1,-5.825350574E0,5.999322761E0
1.023467700E1,-6.977307753E-1,-1.640863198E-1,-1.746576179E0,1.887930323E0
1.024469400E1,3.643036084E-1,-5.425841904E-1,1.874921393E0,1.985559104E0
1.025471000E1,9.609054002E-1,1.407489127E-1,1.428762467E0,1.727573915E0
1.026472700E1,1.263206449E0,8.518621373E-1,5.560316169E-1,1.621891117E0
1.027474400E1,1.317786407E0,1.213939857E0,-1.679799807E-1,1.799563354E0
1.028476000E1,1.361202860E0,1.062920310E0,-2.436721873E-1,1.744147054E0
1.029477700E1,1.217138795E0,9.724328935E-1,-2.523424387E-1,1.578204450E0
1.030479400E1,1.294459963E0,1.156627788E0,-2.890653284E-1,1.759821923E0
1.031481000E1,1.388201794E0,1.284006457E0,3.800324723E-4,1.890972487E0
1.032482700E1,1.321896999E0,1.027747554E0,3.215875419E-1,1.705020603E0
1.033484300E1,1.414567620E0,9.227216202E-1,1.689442597E-1,1.697338771E0
1.034486000E1,1.316778493E0,1.784790657E0,-4.835208803E-1,2.270060733E0
1.035487700E1,9.228976214E-1,3.146265121E0,-1.170431310E0,3.481470046E0
1.036489300E1,5.674758239E-1,4.129404851E0,-1.298728577E0,4.365857206E0
1.037491000E1,4.996226870E-1,3.815227522E0,-1.138965615E0,4.012832733E0
1.038492700E1,8.763705225E-1,2.603322496E0,-1.186716244E0,2.992258136E0
1.039494300E1,7.773004168E-1,1.956579514E0,-1.651786382E0,2.675966663E0
1.040496000E1,3.984189323E-1,1.759366379E0,-2.276855489E0,2.904854320E0
1.041497600E1,5.051857645E-1,1.298881189E0,-2.437925230E0,2.808163889E0
1.042499300E1,8.754218117E-1,3.435157335E-1,-1.789221677E0,2.021306661E0
1.043501000E1,1.228407184E0,-6.866356105E-1,-8.583269651E-1,1.648386438E0
1.044502600E1,1.913263779E0,-1.110351169E0,-8.796215013E-2,2.213864347E0
1.045504300E1,2.496552923E0,-8.974464458E-1,-5.378970623E-2,2.653503336E0
1.046506000E1,2.480953136E0,-2.505871046E-1,-1.108661909E0,2.728929018E0
1.047507600E1,2.317091349E0,3.157408744E-1,-2.502526438E0,3.425090246E0
1.048509300E1,2.527412773E0,-3.278428566E-1,-3.428485662E0,4.271979658E0
1.049511000E1,2.823939404E0,-1.083443452E0,-3.807123865E0,4.862373453E0
1.050512600E1,3.155497874E0,-1.743575973E0,-3.667188300E0,5.142518258E0
1.051514300E1,3.342184852E0,-2.307132956E0,-3.201693801E0,5.171450982E0
1.052515900E1,4.081898270E0,-2.485377724E0,-2.463780448E0,5.376728561E0
1.053517600E1,4.778989579E0,-2.159263889E0,-1.735608703E0,5.523902562E0
1.054519300E1,5.069603798E0,-1.900396543E0,-1.278828894E0,5.563074063E0
1.055520900E1,5.223489066E0,-1.798550325E0,-1.200809349E0,5.653455968E0
1.056522600E1,5.379004537E0,-1.764008483E0,-1.314576870E0,5.811499642E0
1.057524300E1,5.599396035E0,-1.941738111E0,-1.405523878E0,6.090901429E0
1.058525900E1,5.700755180E0,-2.293752188E0,-1.491245813E0,6.323268363E0
1.059527600E1,6.091248028E0,-2.595746843E0,-1.733898392E0,6.844531237E0
1.060529300E1,6.381861078E0,-2.338420823E0,-2.331860247E0,7.185675680E0
1.061530900E1,5.844806600E0,-1.600410406E0,-4.252106917E0,7.402937990E0
1.062532600E1,5.123257849E0,-7.443236554E-1,-5.954772261E0,7.890570408E0
1.063534200E1,4.648743143E0,-6.439462584E-1,-4.859142627E0,6.755497514E0
1.064535900E1,3.723943714E0,-7.795127839E-1,-2.710236495E0,4.671271650E0
1.065537600E1,2.433171005E0,-5.245215565E-1,-9.682041872E-1,2.670742098E0
1.066539200E1,1.288242180E0,5.111577451E-2,6.805328715E-1,1.457842833E0
1.067540900E1,1.525923749E0,-5.977246034E-1,1.311824001E0,2.099190368E0
1.068542600E1,1.998506974E0,-2.853422527E0,1.424922016E0,3.763834879E0
1.069544200E1,1.320576698E0,-5.274644601E0,2.670301766E0,6.057747932E0
1.070545900E1,4.379702664E-1,-6.450113288E0,4.545853490E0,7.903199563E0
1.071547600E1,7.626216397E-2,-7.448018991E0,5.434072444E0,9.219975387E0
1.072549200E1,-1.816668507E-1,-8.492781942E0,4.686411198E0,9.701690465E0
1.073550900E1,-7.702566415E-1,-8.564572887E0,3.637587941E0,9.336875819E0
1.074552500E1,-1.499336898E0,-7.887416782E0,2.566725358E0,8.428963975E0
1.075554200E1,-2.433272893E0,-6.951536588E0,1.830910424E0,7.589262869E0
1.076555900E1,-3.427581097E0,-6.135681605E0,1.657011892E0,7.220844088E0
1.077557500E1,-3.470520126E0,-4.525046757E0,1.137151297E0,5.814952379E0
1.078559200E1,-2.878866686E0,-2.724539954E0,1.234333337E0,4.151453980E0
1.079560900E1,-3.403059044E0,-1.410791634E0,3.269761823E0,4.925696527E0
1.080562500E1,-3.673997091E0,-7.942793423E-1,5.202623277E0,6.418443990E0
1.081564200E1,-3.408587002E0,1.282797253E-1,4.057080055E0,5.300454661E0
1.082565900E1,-2.952062716E0,9.458941358E-1,2.242563031E0,3.826026522E0
1.083567500E1,-3.287095894E0,1.774353962E0,8.833414999E-1,3.838440257E0
1.084569200E1,-3.517494317E0,2.367319517E0,8.505430055E-1,4.324394914E0
1.085570800E1,-3.154357667E0,2.793140073E0,1.325666553E0,4.416898863E0
1.086572500E1,-1.720371005E0,3.424518326E0,1.244838445E0,4.029469557E0
1.087574200E1,-1.457059190E0,3.699260278E0,7.540380733E-1,4.046742085E0
1.088575800E1,-1.842345093E0,4.237222829E0,1.268282125E0,4.791328866E0
1.089577500E1,-2.606128575E0,4.625565657E0,2.303596999E0,5.787428006E0
1.090579200E1,-2.640751400E0,4.849407597E0,2.883568432E0,6.229389128E0
1.091580800E1,-2.767345373E0,4.983767257E0,3.325574666E0,6.599665397E0
1.092582500E1,-4.218612896E0,5.486281648E0,3.311801257E0,7.672288359E0
1.093584100E1,-5.735247905E0,5.817241656E0,3.158510360E0,8.758399209E0
1.094585800E1,-6.868372225E0,5.623060886E0,2.962585073E0,9.357898325E0
1.095587500E1,-7.669132036E0,5.543280891E0,2.807330096E0,9.870392672E0
1.096589100E1,-7.751987082E0,5.299080700E0,2.641090539E0,9.754430748E0
1.097590800E1,-7.382356514E0,4.619261189E0,2.463903532E0,9.050280783E0
1.098592500E1,-6.616089427E0,3.878466913E0,1.887123363E0,7.897871833E0
1.099594100E1,-4.990411448E0,3.425646254E0,8.091564131E-1,6.106880774E0
1.100595800E1,-3.316611469E0,2.587885262E0,-4.236810601E-1,4.228068993E0
1.101597500E1,-1.687380430E0,1.310410144E0,-1.658160431E0,2.704426645E0
1.102599100E1,1.148029165E-1,-1.063924277E-1,-3.617004280E0,3.620389346E0
1.103600800E1,1.857085485E0,-2.650644012E0,-5.963085247E0,6.784767192E0
1.104602400E1,4.696535652E0,-4.637277630E0,-7.998692805E0,1.037019178E1
1.105604100E1,6.371102786E0,-5.367988383E0,-7.066383505E0,1.092428606E1
1.106605800E1,6.083010471E0,-4.995117872E0,-3.932461857E0,8.798776915E0
1.107607400E1,5.573267752E0,-3.294781474E0,-1.401679333E0,6.624319086E0
1.108609100E1,5.505257617E0,-1.642278224E0,-7.242896327E-1,5.790469296E0
1.109610800E1,5.804416957E0,-1.072927819E0,-7.026333001E-1,5.944419558E0
1.110612400E1,6.605870833E0,-1.175043009E0,3.490507078E-1,6.718637655E0
1.111614100E1,6.756707947E0,-1.154078402E0,1.800330802E0,7.087043829E0
1.112615800E1,6.287630274E0,-8.101317286E-2,2.238372624E0,6.674666254E0
1.113617400E1,5.954313254E0,1.839477326E0,1.594032556E0,6.432609342E0
1.114619100E1,4.934314431E0,3.429020097E0,1.062355761E0,6.101986356E0
1.115620700E1,3.654711512E0,3.952271054E0,9.052682662E-1,5.458651239E0
1.116622400E1,2.540096261E0,2.533746477E0,3.248794878E0,4.840106236E0
1.117624100E1,7.080978155E-4,-3.732961875E-1,5.651797028E0,5.664111597E0
1.118625700E1,-2.272415113E0,-3.695506366E0,5.256590738E0,6.815598575E0
1.119627400E1,-2.200434719E0,-6.536150388E0,4.603866055E0,8.292090056E0
1.120629100E1,-5.026053151E-1,-1.113026621E1,-2.356718807E0,1.138813249E1
1.121630700E1,3.234135323E0,-1.622774018E1,-1.570624222E1,2.281414533E1
1.122632400E1,-3.442706675E0,-1.158339502E1,-8.877318817E0,1.499446761E1
1.123634100E1,-1.188166266E1,-1.353811103E0,-8.076791725E0,1.443056744E1
1.124635700E1,-1.240407045E1,4.948313250E0,-2.525563298E0,1.359136629E1
1.125637400E1,-9.806806251E0,7.051642674E0,2.291129858E0,1.229424212E1
1.126639100E1,-6.657154423E0,6.118379694E0,5.425568254E0,1.054462261E1
1.127640700E1,-4.566091872E0,3.981444567E0,7.730834194E0,9.821756114E0
1.128642400E1,-5.058454328E0,2.268044904E0,8.723337071E0,1.033579206E1
1.129644000E1,-5.591899320E0,-1.889469266E-1,8.063546612E0,9.814571968E0
1.130645700E1,-4.728259136E0,-3.101126955E0,6.843295856E0,8.877168525E0
1.131647400E1,-3.984411152E0,-4.920702113E0,5.825074586E0,8.603507159E0
1.132649000E1,-3.085482437E0,-4.499875664E0,4.422877189E0,7.023597759E0
1.133650700E1,-1.479865524E0,-2.210173257E0,3.459596357E0,4.363905905E0
1.134652400E1,-6.975764088E-1,-3.745480764E-1,3.269184119E0,3.363697951E0
1.135654000E1,-7.517317121E-1,7.513853377E-1,2.674605317E0,2.878053873E0
1.136655700E1,-1.226794083E0,8.974674958E-1,2.137637962E0,2.622969250E0
1.137657400E1,-1.279392127E0,5.463357639E-1,2.000468130E0,2.436636970E0
1.138659000E1,-1.176906736E0,3.308927643E-1,1.584298403E0,2.001149899E0
1.139660700E1,-1.112315030E0,2.589743507E-1,6.874828720E-1,1.333021057E0
1.140662400E1,-6.557311023E-1,2.868912971E-1,-4.058179332E0,4.120814165E0
1.141664000E1,3.897511294E-1,1.247080706E0,-9.410859704E0,9.501126070E0
1.142665700E1,1.580346855E0,1.346648848E0,-1.339093076E0,2.470653672E0
1.143667300E1,2.118613607E0,9.312585551E-1,2.576950969E0,3.463588083E0
1.144669000E1,1.862373561E0,1.070399483E0,2.208158306E0,3.080609265E0
1.145670700E1,1.611474215E0,1.233754901E0,1.377952502E0,2.453110964E0
1.146672300E1,1.286679804E0,9.986781210E-1,3.122365650E-1,1.658431361E0
1.147674000E1,6.179906143E-1,1.125359218E0,-5.097381143E-1,1.381368420E0
1.148675700E1,6.035072804E-1,1.594684228E0,-9.769698212E-1,1.965123115E0
1.149677300E1,1.531558272E0,2.041209775E0,-1.415898592E0,2.918386011E0
1.150679000E1,2.195010550E0,2.112777355E0,-1.345193622E0,3.330382162E0
1.151680700E1,2.417929215E0,1.997148666E0,-6.582490595E-1,3.204415127E0
1.152682300E1,2.681472580E0,1.875435364E0,-3.944549952E-1,3.295928965E0
1.153684000E1,2.068672392E0,1.954190342E0,-6.291913944E-1,2.914472022E0
1.154685600E1,1.300524111E0,2.417140718E0,-9.183278762E-1,2.894349374E0
1.155687300E1,1.248831216E0,2.307013673E0,-1.123617990E0,2.853841075E0
1.156689000E1,1.384568919E0,1.672148141E0,-1.105113380E0,2.436059539E0
1.157690600E1,1.288557930E0,1.318940647E0,-8.604711391E-1,2.034796440E0
1.158692300E1,1.266491854E0,1.331223893E0,-8.227624454E-1,2.013230417E0
1.159694000E1,1.384488373E0,1.201359572E0,-7.364550573E-1,1.975459169E0
1.160695600E1,1.236434534E0,8.817010635E-1,-6.423312575E-1,1.648865236E0
1.161697300E1,1.161005160E0,4.156177497E-1,-7.847513044E-1,1.461679070E0
1.162699000E1,1.237403710E0,-2.987687463E-1,-1.439286578E0,1.921451680E0
1.163700600E1,1.554013335E0,-1.155729071E0,-2.414574375E0,3.095292642E0
1.164702300E1,1.662894630E0,-1.786262401E0,-3.740232303E0,4.466014957E0
1.165704000E1,2.216232434E0,-2.203824350E0,-4.427260846E0,5.419332669E0
1.166705600E1,3.093549840E0,-2.708260136E0,-3.728937237E0,5.550648295E0
1.167707300E1,3.825807181E0,-2.888923897E0,-2.454067054E0,5.385640814E0
1.168708900E1,4.200214340E0,-2.656288914E0,-1.923545669E0,5.328949168E0
1.169710600E1,4.463287881E0,-2.205462155E0,-1.887208148E0,5.324148441E0
1.170712300E1,4.655332955E0,-1.877857865E0,-1.921724262E0,5.375081322E0
1.171713900E1,4.606587349E0,-1.881369118E0,-1.980336313E0,5.355551202E0
1.172715600E1,4.752637932E0,-2.077198802E0,-2.233125479E0,5.647049812E0
1.173717300E1,4.858920140E0,-2.104436302E0,-2.592146128E0,5.895504951E0
1.174718900E1,5.021378887E0,-2.430498097E0,-2.735856655E0,6.213411186E0
1.175720600E1,5.404939862E0,-2.971326953E0,-2.701493738E0,6.733515218E0
1.176722300E1,5.788788520E0,-2.610373653E0,-3.028643700E0,7.035396634E0
1.177723900E1,6.190292845E0,-1.383714933E0,-3.265108024E0,7.134095803E0
1.178725600E1,5.939537340E0,-3.016309583E-1,-3.421563728E0,6.861208596E0
1.179727300E1,5.714432402E0,1.098335141E-1,-2.989990096E0,6.450336569E0
1.180728900E1,5.138796825E0,-2.518968809E-1,-2.167220780E0,5.582788797E0
1.181730600E1,3.398096513E0,-7.261662966E-1,-1.643704945E0,3.843974941E0
1.182732200E1,1.313149857E0,1.991690290E-1,8.957470257E-2,1.331185365E0
1.183733900E1,9.800529119E-1,-4.860743594E-1,1.502222791E0,1.858344776E0
1.184735600E1,5.831439134E-1,-3.083290023E0,1.060214803E0,3.312218233E0
1.185737200E1,3.186800504E-1,-5.998236369E0,2.032041925E0,6.341103287E0
1.186738900E1,-2.331700033E-1,-7.194327600E0,4.366659719E0,8.419051904E0
1.187740600E1,-8.147214275E-1,-8.066327548E0,5.021698730E0,9.536606800E0
1.188742200E1,-8.219658353E-1,-9.112496170E0,3.683624239E0,9.863179093E0
1.189743900E1,-1.026941296E0,-8.993076730E0,2.639986292E0,9.428656592E0
1.190745600E1,-1.157378570E0,-7.750483763E0,2.251448168E0,8.153437469E0
1.191747237E1,-1.489026503E0,-6.133401775E0,2.026520984E0,6.628921825E0
1.192748937E1,-2.013730492E0,-4.948758223E0,1.775060306E0,5.629934061E0
1.193750638E1,-1.967661303E0,-4.032656236E0,1.193370960E0,4.643074581E0
1.194752237E1,-1.663260081E0,-3.055183627E0,1.194223630E0,3.677873186E0
1.195753937E1,-2.848439530E0,-2.343740035E0,1.990743041E0,4.191632494E0
1.196755538E1,-4.656485441E0,-1.980361310E0,3.406773781E0,6.100065178E0
1.197757237E1,-5.130154640E0,-8.948806876E-1,3.213412206E0,6.119257805E0
1.198758937E1,-4.428215989E0,5.258693397E-1,2.925891749E0,5.333523970E0
1.199760538E1,-3.810006543E0,1.822040344E0,2.406939665E0,4.861001895E0
1.200762237E1,-3.483133155E0,2.837823910E0,1.817805791E0,4.846635845E0
1.201763938E1,-3.527493933E0,3.412675375E0,1.458353910E0,5.120191675E0
1.202765538E1,-4.271920792E0,3.351891814E0,1.008697325E0,5.522857619E0
1.203767237E1,-4.209233085E0,3.973545563E0,1.595502984E0,6.004359856E0
1.204768938E1,-2.910828736E0,4.852448734E0,2.994382524E0,6.401992608E0
1.205770538E1,-2.364596468E0,5.457509839E0,3.375657238E0,6.838917450E0
1.206772237E1,-2.792172066E0,5.768002253E0,3.383041102E0,7.246450299E0
1.207773938E1,-3.289629785E0,5.854336392E0,3.118018391E0,7.403847473E0
1.208775538E1,-4.519857354E0,5.641718767E0,2.947620002E0,7.806828089E0
1.209777237E1,-6.301267151E0,5.106828927E0,2.943555895E0,8.628452393E0
1.210778837E1,-7.462721230E0,5.253744314E0,3.094575734E0,9.636930863E0
1.211780538E1,-7.691052078E0,5.519043013E0,3.267592214E0,1.001445339E1
1.212782237E1,-6.878564506E0,5.519311400E0,3.178435332E0,9.374427937E0
1.213783837E1,-5.720098354E0,5.130185630E0,2.602405068E0,8.112388176E0
1.214785538E1,-4.062057498E0,4.599163139E0,1.843578271E0,6.407136142E0
1.215787237E1,-2.430812970E0,3.845893829E0,8.828456560E-1,4.634562276E0
1.216788837E1,-1.081131171E0,2.992161167E0,3.396355212E-3,3.181490939E0
1.217790538E1,5.404897177E-1,1.906565940E0,-1.065391636E0,2.249929367E0
1.218792237E1,1.997457837E0,-1.173360765E-2,-3.081128308E0,3.671965024E0
1.219793838E1,3.200528159E0,-2.519804376E0,-6.934498386E0,8.042391588E0
1.220795538E1,5.015094885E0,-5.143864022E0,-1.010629245E1,1.239950244E1
1.221797237E1,5.964287435E0,-6.153004566E0,-8.163581947E0,1.183538170E1
1.222798838E1,5.789760911E0,-4.602762101E0,-3.603684615E0,8.227593401E0
1.223800538E1,5.365788075E0,-2.442779589E0,-1.935407916E-1,5.898839871E0
1.224802137E1,5.110379941E0,-1.236449298E0,-5.526773617E-2,5.258121769E0
1.225803838E1,5.763323311E0,-9.448398829E-1,-8.896307650E-1,5.907627348E0
1.226805538E1,6.803906087E0,-1.364448357E0,1.022413431E-1,6.940123245E0
1.227807137E1,6.206664464E0,-1.871054630E0,2.685735200E0,7.016886971E0
1.228808838E1,5.321298366E0,-1.536103313E0,2.459504964E0,6.060115045E0
1.229810538E1,4.196605146E0,-4.715323341E-1,2.245631942E-1,4.228979324E0
1.230812137E1,3.696362106E0,-1.208659236E0,-1.600034430E0,4.205241984E0
1.231813838E1,3.431531769E0,-4.986380378E0,-1.316738001E0,6.194610441E0
1.232815538E1,4.063075498E0,-9.144351801E0,9.811069456E-1,1.005436836E1
1.233817137E1,3.038107418E0,-1.129217561E1,4.845979667E0,1.265807433E1
1.234818838E1,-9.614392510E-1,-9.294487833E0,5.474646274E0,1.082975629E1
1.235820538E1,-2.095150047E0,-4.786003314E0,-3.186028526E0,6.119334867E0
1.236822137E1,-6.980437621E0,2.644952917E-1,-5.238764917E0,8.731616402E0
1.237823838E1,-1.484894568E1,6.161052673E0,-8.996485072E0,1.842244559E1
1.238825438E1,-1.606962913E1,1.008765620E1,-8.577535579E0,2.082229345E1
1.239827137E1,-1.270220360E1,8.754943610E0,4.073003778E-1,1.543246278E1
1.240828838E1,-9.445556497E0,5.555482861E0,6.499333979E0,1.274061496E1
1.241830438E1,-7.025253021E0,1.427425209E0,9.639146113E0,1.201269581E1
1.242832137E1,-4.966668245E0,-3.408610976E0,7.726600810E0,9.797284436E0
1.243833838E1,-4.833796408E0,-7.658999981E0,7.207138849E0,1.157448568E1
1.244835438E1,-5.229994678E0,-8.436182064E0,7.394842658E0,1.237762942E1
1.245837137E1,-3.973091235E0,-5.600285397E0,5.515128887E0,8.807116277E0
1.246838838E1,-2.751699101E0,-2.013073558E0,3.902142874E0,5.181798153E0
1.247840438E1,-1.997142380E0,3.208133340E-1,2.837211707E0,3.484432400E0
1.248842137E1,-1.822274087E0,1.108491170E0,1.803505840E0,2.793218366E0
1.249843838E1,-1.701761511E0,1.360830100E0,1.055294956E0,2.421053127E0
1.250845438E1,-1.458857501E0,1.315647495E0,4.183881605E-1,2.008542306E0
1.251847137E1,-9.457831849E-1,8.480567694E-1,-3.016414833E-1,1.305639193E0
1.252848838E1,1.463407512E-1,-5.144497275E-2,-2.493744103E-1,2.936831578E-1
1.253850438E1,7.831717522E-1,-8.523989117E-1,1.369698572E-1,1.165634008E0
1.254852137E1,1.319837318E0,-9.525646394E-1,9.593374693E-1,1.889359235E0
1.255853738E1,1.597615875E0,-8.229640281E-1,1.084348601E0,2.098918332E0
1.256855438E1,1.375785816E0,-8.158204848E-1,-7.285121995E-1,1.757577793E0
1.257857137E1,1.050919923E0,-7.420116663E-2,-3.030448151E0,3.208356977E0
1.258858738E1,1.213737689E0,6.418430150E-1,-7.448914200E-1,1.562045090E0
1.259860437E1,1.743689847E0,1.922621225E0,1.043361374E0,2.797414809E0
1.260862137E1,1.980275063E0,3.104980854E0,1.743719814E0,4.074672284E0
1.261863738E1,1.979320505E0,3.099240058E0,2.274256402E0,4.323799346E0
1.262865437E1,1.666177256E0,2.393027970E0,1.771336214E0,3.411797400E0
1.263867137E1,2.473566933E0,1.703390399E0,2.362345290E-1,3.012619952E0
1.264868738E1,2.585460129E0,1.345827899E0,-1.740003324E0,3.394623452E0
1.265870437E1,2.844774203E0,1.251173172E0,-2.325278621E0,3.881378007E0
1.266872137E1,3.222093275E0,1.178159575E0,-1.173344393E0,3.625835369E0
1.267873738E1,2.398353029E0,1.203484451E0,-4.694764531E-1,2.724129258E0
1.268875437E1,1.521645634E0,1.225933666E0,-3.522273539E-1,1.985543476E0
1.269877137E1,1.170172351E0,1.231844616E0,-4.346831810E-1,1.753765651E0
1.270878738E1,7.903211427E-1,1.231132425E0,-7.144804899E-1,1.628120673E0
1.271880437E1,7.406062880E-1,9.909241283E-1,-1.110826986E0,1.662637933E0
1.272882037E1,7.974574502E-1,7.520665383E-1,-1.440908888E0,1.810458750E0
1.273883738E1,1.120729977E0,6.223916674E-1,-1.561855620E0,2.020593984E0
1.274885437E1,1.274998529E0,6.408051342E-1,-1.627505672E0,2.164492362E0
1.275887037E1,1.398660270E0,5.199624825E-1,-1.846032640E0,2.373699231E0
1.276888738E1,1.582086548E0,4.602881384E-1,-2.536200846E0,3.024430152E0
1.277890437E1,1.729760610E0,2.342330271E-1,-3.412743203E0,3.833243150E0
1.278892037E1,2.244880867E0,-5.258868814E-2,-3.695312238E0,4.324070792E0
1.279893738E1,2.982732824E0,-8.022549444E-1,-3.145395055E0,4.408380445E0
1.280895437E1,3.416771350E0,-1.900403559E0,-2.354284319E0,4.563826771E0
1.281897037E1,4.000903516E0,-2.209940538E0,-1.850419806E0,4.931036360E0
1.282898738E1,4.395092974E0,-1.940409039E0,-1.352094360E0,4.991010784E0
1.283900437E1,4.410122950E0,-1.769885520E0,-1.127426793E0,4.883929807E0
1.284902037E1,4.269955543E0,-1.923967838E0,-1.624384575E0,4.957095705E0
1.285903738E1,4.144840915E0,-2.185424332E0,-2.446986660E0,5.286163963E0
1.286905437E1,4.555171028E0,-2.701321830E0,-2.687782310E0,5.938930583E0
1.287907037E1,4.621445709E0,-3.218785797E0,-2.505176981E0,6.163947936E0
1.288908738E1,4.483223378E0,-3.330835406E0,-2.489273724E0,6.114755926E0
1.289910437E1,4.633713460E0,-2.984094933E0,-2.325545985E0,5.981996918E0
1.290912037E1,4.389317679E0,-2.531289477E0,-2.336361287E0,5.579616489E0
1.291913625E1,3.791476716E0,-2.016732745E0,-2.456608838E0,4.947467397E0
1.292915325E1,2.401700414E0,-1.520881256E0,-3.496046146E0,4.505949769E0
1.293916925E1,1.321546167E0,-1.377326265E0,-5.035482371E0,5.385127169E0
1.294918625E1,1.705181839E0,-1.278509490E0,-4.466258267E0,4.948706349E0
1.295920225E1,1.459264906E0,-6.044512403E-1,-2.948247408E0,3.344694029E0
1.296921925E1,3.150831357E-1,-5.181001443E-1,-1.381470187E0,1.508696463E0
1.297923625E1,-4.756131790E-1,-1.797062209E0,3.494354546E-1,1.891492959E0
1.298925225E1,-4.494784639E-1,-3.460060626E0,2.035802854E0,4.039621726E0
1.299926925E1,-7.167073289E-1,-3.482201108E0,4.235326577E0,5.529682194E0
1.300928625E1,-4.106678624E-1,-3.915427163E0,5.026273592E0,6.384562959E0
1.301930225E1,-1.599263182E-1,-5.120693260E0,4.484987483E0,6.808978530E0
1.302931925E1,2.362452002E-1,-6.564015294E0,3.610784304E0,7.495323333E0
1.303933625E1,1.034243810E-1,-7.474305149E0,1.957677037E0,7.727123232E0
1.304935225E1,-1.137343378E0,-7.254053400E0,5.544552076E-1,7.363576662E0
1.305936925E1,-2.337998215E0,-6.798706743E0,-1.520183976E-1,7.191088835E0
1.306938625E1,-3.347809581E0,-6.407060823E0,-1.575089331E-1,7.230703040E0
1.307940225E1,-3.752488944E0,-5.264506699E0,3.800830507E-1,6.476161454E0
1.308941925E1,-3.686737297E0,-3.574224004E0,1.290900471E0,5.294670259E0
1.309943625E1,-3.240470197E0,-1.589177320E0,2.343006209E0,4.303000087E0
1.310945225E1,-2.948523397E0,1.063462347E-1,2.689325098E0,3.992188526E0
1.311946925E1,-3.377785040E0,9.796384174E-1,2.493883084E0,4.311447093E0
1.312948625E1,-4.292641570E0,1.353692404E0,2.069866394E0,4.954149943E0
1.313950225E1,-3.858231746E0,1.942110579E0,2.312266227E0,4.899420457E0
1.314951925E1,-2.622836409E0,2.397228025E0,1.986330732E0,4.070808618E0
1.315953525E1,-2.399597609E0,2.336584797E0,5.860184777E-1,3.400163945E0
1.316955225E1,-1.983233754E0,2.669081452E0,-3.590659650E-1,3.344568775E0
1.317956925E1,-9.182251114E-1,3.064124020E0,4.889849572E-1,3.235907856E0
1.318958525E1,-9.532166040E-1,3.799654047E0,1.289549472E0,4.124188479E0
1.319960225E1,-1.757402591E0,4.349694607E0,1.943878777E0,5.078087410E0
1.320961925E1,-3.257773862E0,4.831482958E0,3.071286274E0,6.587041634E0
1.321963525E1,-4.542767329E0,5.424493536E0,3.485383748E0,7.887316717E0
1.322965225E1,-6.154758146E0,5.686685609E0,3.030763900E0,8.910946688E0
1.323966925E1,-7.311235660E0,5.934408748E0,2.682341183E0,9.791135189E0
1.324968525E1,-7.641739000E0,5.993491353E0,2.559578306E0,1.004338363E1
1.325970225E1,-7.462588499E0,5.897824473E0,2.452274297E0,9.822841231E0
1.326971925E1,-6.874171493E0,6.015234225E0,2.419144851E0,9.449314171E0
1.327973525E1,-5.889111537E0,6.020933506E0,2.461684806E0,8.774575036E0
1.328975225E1,-4.316563114E0,6.034352281E0,2.075376079E0,7.704109971E0
1.329976925E1,-2.690966996E0,5.244547228E0,7.491826916E-1,5.942041207E0
1.330978525E1,-1.197852120E0,3.553189230E0,-4.023176730E-1,3.771188528E0
1.331980225E1,1.070354168E0,1.753774102E0,-1.405244527E0,2.489195417E0
1.332981925E1,3.879736928E0,-6.793838936E-1,-4.139903526E0,5.714256060E0
1.333983525E1,7.162450919E0,-4.018337574E0,-8.338238863E0,1.170358780E1
1.334985225E1,8.913075126E0,-6.643328682E0,-8.406863540E0,1.393743444E1
1.335986925E1,7.027324104E0,-7.238551261E0,-4.311599997E0,1.097131728E1
1.336988525E1,5.433197701E0,-5.409552730E0,-1.913217148E0,7.902107178E0
1.337990225E1,5.351832526E0,-2.889185852E0,-2.901497165E0,6.738560089E0
1.338991825E1,5.898335520E0,-1.544183580E0,-3.404499506E0,6.983228603E0
1.339993525E1,6.209740684E0,-1.292003109E0,-1.054187786E0,6.429732754E0
1.340995225E1,4.872823357E0,-1.499078743E0,9.920549798E-1,5.193824952E0
1.341996825E1,3.101282490E0,-1.136108154E0,1.359589906E0,3.571719409E0
1.342998525E1,2.199901161E0,-6.007347500E-1,1.379563117E0,2.665265794E0
1.344000225E1,2.595518802E0,-9.919561619E-1,6.341847704E-1,2.850067578E0
1.345001825E1,3.969185587E0,-2.146571923E0,1.726345105E-1,4.515751091E0
1.346003525E1,4.863316661E0,-4.065478996E0,1.724117316E0,6.569059974E0
1.347005225E1,4.088142219E0,-5.694008662E0,3.699652627E0,7.926037535E0
1.348006825E1,1.509263131E0,-6.865306529E0,3.283648961E0,7.758392839E0
1.349008525E1,-4.197917846E-1,-6.996195282E0,-9.723788068E-2,7.009452816E0
1.350010225E1,-3.330905280E0,-4.420604376E0,-2.101422501E0,5.920527811E0
1.351011825E1,-9.461375554E0,1.724618715E-1,-5.749385887E0,1.107261525E1
1.352013525E1,-1.409765214E1,4.602051079E0,-1.254062866E1,1.942138093E1
1.353015225E1,-1.256710368E1,5.783242435E0,-4.601463434E-1,1.384159394E1
1.354016825E1,-1.038625831E1,3.619590211E0,7.150882788E0,1.311910513E1
1.355018525E1,-8.576181949E0,5.767728603E-1,6.541821603E0,1.080180511E1
1.356020225E1,-7.335884013E0,-2.218061736E0,5.388883992E0,9.368834655E0
1.357021825E1,-6.311904405E0,-3.830785208E0,4.764637588E0,8.787310390E0
1.358023525E1,-5.187231651E0,-4.098470741E0,4.987779032E0,8.281471746E0
1.359025225E1,-4.418010551E0,-3.127341776E0,4.646437293E0,7.133615026E0
1.360026825E1,-3.842919350E0,-1.855188795E0,3.424258125E0,5.471315957E0
1.361028525E1,-3.306151970E0,-6.173279786E-1,2.472730197E0,4.174461559E0
1.362030125E1,-2.786036291E0,9.252616507E-1,1.789456151E0,3.438060594E0
1.363031825E1,-2.382485440E0,2.139973925E0,6.631164280E-1,3.270389681E0
1.364033525E1,-1.908722393E0,2.422694403E0,-4.527860876E-1,3.117320097E0
1.365035125E1,-1.443550660E0,1.308819117E0,-5.434728941E-1,2.022920853E0
1.366036825E1,-7.757680077E-1,-3.727506423E-1,4.905159775E-1,9.906386664E-1
1.367038525E1,-9.541259922E-2,-1.763158883E0,1.300610211E0,2.193038926E0
1.368040125E1,8.554645338E-1,-2.070909537E0,1.359137331E0,2.620637358E0
1.369041825E1,1.486278311E0,-1.504000930E0,6.310853076E-1,2.206651463E0
1.370043525E1,1.443725492E0,-8.793417120E-1,1.624719036E-1,1.698229155E0
1.371045125E1,9.663959357E-1,-2.775094396E-1,4.831577682E-1,1.115515138E0
1.372046825E1,1.119062205E0,5.511620557E-1,8.219337487E-1,1.493872457E0
1.373048525E1,1.757450831E0,1.619262414E0,6.627514887E-1,2.479895910E0
1.374050125E1,2.128198071E0,2.187279069E0,3.869511902E-1,3.076223005E0
1.375051825E1,2.160432309E0,2.153935906E0,1.168179949E-1,3.052958253E0
1.376053525E1,2.157844185E0,2.071956773E0,-1.260344310E-1,2.994191222E0
1.377055125E1,1.955765436E0,1.902527268E0,-1.596892867E-1,2.733153694E0
1.378056825E1,1.990410481E0,1.378564121E0,7.630616426E-3,2.421204482E0
1.379058525E1,2.276144760E0,1.808663669E0,1.490227228E-1,2.911066301E0
1.380060125E1,2.576948337E0,2.651897070E0,4.555016077E-1,3.725681484E0
1.381061825E1,3.048208776E0,1.866615424E0,5.152250683E-1,3.611272179E0
1.382063525E1,3.297918213E0,1.491713591E0,2.424031954E-1,3.627703583E0
1.383065125E1,2.773077691E0,2.099590715E0,-6.487551548E-2,3.478857554E0
1.384066825E1,2.114293977E0,1.814248930E0,-2.318562070E-1,2.795620772E0
1.385068525E1,1.587023206E0,1.461698079E0,-3.608176446E-1,2.187554182E0
1.386070125E1,1.057825996E0,1.294864152E0,-5.792450631E-1,1.769517972E0
1.387071825E1,7.639051035E-1,9.381652862E-1,-1.214777909E0,1.714465071E0
1.388073525E1,8.111822540E-1,7.295097345E-1,-2.001069809E0,2.279140514E0
1.389075125E1,9.841535642E-1,5.058560747E-1,-2.482872192E0,2.718290442E0
1.390076825E1,1.298289451E0,2.154891926E-1,-2.678689597E0,2.984521578E0
1.391078425E1,1.799476378E0,7.346207857E-2,-2.890620174E0,3.405759373E0
1.392080158E1,2.273114294E0,-3.915412545E-2,-3.563296142E0,4.226779038E0
1.393081858E1,2.573232139E0,4.196312785E-2,-4.166860945E0,4.897551907E0
1.394083458E1,2.792944483E0,4.989429116E-2,-3.696236098E0,4.633054028E0
1.395085158E1,3.113861021E0,-3.089171737E-1,-2.408724235E0,3.948862206E0
1.396086858E1,3.445807746E0,-6.553448206E-1,-1.318982309E0,3.747370036E0
1.397088458E1,3.521698465E0,-8.521468967E-1,-7.387886810E-1,3.697880897E0
1.398090158E1,3.350611859E0,-1.079553884E0,-7.901137859E-1,3.607813218E0
1.399091858E1,2.868309831E0,-1.571432775E0,-1.237508960E0,3.496860117E0
1.400093458E1,2.668648174E0,-2.219352801E0,-1.560031435E0,3.805378826E0
1.401095158E1,2.976325153E0,-2.940568260E0,-2.161354854E0,4.709236447E0
1.402096858E1,3.141483268E0,-3.759152139E0,-2.642110001E0,5.566047716E0
1.403098458E1,3.116468587E0,-4.506574234E0,-2.340240476E0,5.958046094E0
1.404100158E1,3.175723685E0,-4.757173033E0,-1.713697286E0,5.970986064E0
1.405101858E1,3.472604658E0,-4.268990167E0,-1.817101786E0,5.795266953E0
1.406103458E1,4.371748551E0,-3.060860104E0,-2.619284225E0,5.944888545E0
1.407105158E1,5.965330578E0,-2.058346794E0,-3.366601070E0,7.152339701E0
1.408106858E1,6.727988178E0,-1.174721997E0,-4.018347514E0,7.924197968E0
1.409108458E1,6.294878483E0,-1.245766836E-1,-4.210255471E0,7.574118140E0
1.410110158E1,5.058135654E0,5.492067468E-1,-3.554033568E0,6.206248380E0
1.411111858E1,3.466125066E0,6.841634077E-1,-2.462350804E0,4.306422416E0
1.412113458E1,2.263447824E0,-2.101080000E-2,-1.190832830E0,2.557678700E0
1.413115158E1,1.587037824E0,-1.451037435E0,5.608066360E-2,2.151126154E0
1.414116858E1,1.118214359E0,-2.561580977E0,9.474945188E-1,2.951244876E0
1.415118458E1,7.377658568E-2,-3.285858623E0,1.443103348E0,3.589548321E0
1.416120158E1,-6.223784380E-1,-3.593645530E0,2.312725818E0,4.318604384E0
1.417121858E1,-1.941550416E-1,-4.382596890E0,3.787549142E0,5.795720851E0
1.418123458E1,1.557389078E-1,-5.675648405E0,4.799596921E0,7.434606246E0
1.419125158E1,-3.751957286E-1,-6.567026610E0,4.478905209E0,7.957839041E0
1.420126858E1,-9.265627293E-1,-6.912782997E0,3.163232571E0,7.658402415E0
1.421128458E1,-1.095742339E0,-6.644585248E0,1.594209434E0,6.920452884E0
1.422130158E1,-1.797286596E0,-5.551191589E0,8.042097417E-1,5.890052672E0
1.423131858E1,-2.773365959E0,-4.600637807E0,5.820939727E-1,5.403356398E0
1.424133458E1,-3.560707580E0,-3.570183578E0,8.509194200E-1,5.113600796E0
1.425135158E1,-3.426653729E0,-2.444950075E0,1.521634816E0,4.476059558E0
1.426136758E1,-2.620278252E0,-1.558871786E0,2.379552476E0,3.867584433E0
1.427138458E1,-2.989294862E0,-5.633207560E-1,3.904841949E0,4.949848956E0
1.428140158E1,-3.981622907E0,3.836130148E-1,3.988949468E0,5.649088225E0
1.429141758E1,-3.781027742E0,1.764655185E0,2.960828862E0,5.116315692E0
1.430143458E1,-3.246293731E0,2.494255552E0,1.695180469E0,4.430955943E0
1.431145158E1,-2.835824747E0,3.183936392E0,6.777987865E-1,4.317263501E0
1.432146758E1,-3.026791887E0,3.036940314E0,-8.430610545E-2,4.288540908E0
1.433148458E1,-2.874597926E0,4.129307202E0,1.310724286E-1,5.033057837E0
1.434150158E1,-1.814891246E0,5.052648042E0,2.978104607E-1,5.376966947E0
1.435151758E1,-7.671836373E-1,4.524853215E0,6.678236559E-2,4.589915820E0
1.436153458E1,-2.195076331E0,3.457783136E0,5.046005313E-1,4.126650701E0
1.437155158E1,-3.078197683E0,2.973431366E0,2.052538901E0,4.746526204E0
1.438156758E1,-3.963090157E0,3.835014499E0,3.089607940E0,6.321320829E0
1.439158458E1,-4.958339471E0,5.105149607E0,3.233124340E0,7.816698524E0
1.440160158E1,-6.220604811E0,5.816371590E0,2.846488022E0,8.979342779E0
1.441161758E1,-6.991713392E0,6.220971431E0,2.505987113E0,9.688369992E0
1.442163458E1,-7.141112675E0,6.273440251E0,2.352816668E0,9.792205528E0
1.443165158E1,-6.837363271E0,6.059128688E0,2.405067387E0,9.447059124E0
1.444166758E1,-6.123797139E0,5.871766942E0,2.352918409E0,8.804246899E0
1.445168458E1,-5.232297896E0,5.574089870E0,1.787132613E0,7.851194950E0
1.446170158E1,-4.407928197E0,4.512179959E0,6.824988516E-1,6.344714624E0
1.447171758E1,-2.444438590E0,3.431954815E0,-5.806884483E-1,4.253327279E0
1.448173458E1,-8.473605122E-1,1.445516494E0,-1.318841683E0,2.132341707E0
1.449175158E1,1.077823693E0,-1.245871502E0,-2.902086564E0,3.337065498E0
1.450176758E1,4.201536103E0,-4.566737990E0,-7.074953184E0,9.410789768E0
1.451178458E1,7.916821845E0,-7.470512645E0,-9.446356981E0,1.441243517E1
1.452180158E1,9.600969057E0,-8.358142785E0,-6.966714206E0,1.451110831E1
1.453181758E1,8.192989349E0,-6.562641199E0,-3.650745345E0,1.111401258E1
1.454183458E1,7.414248982E0,-3.661688409E0,-3.152808447E0,8.849816443E0
1.455185158E1,7.018274953E0,-2.438077843E0,-2.299058390E0,7.777279497E0
1.456186758E1,6.689331651E0,-2.760967523E0,-4.972823024E-2,7.236889697E0
1.457188458E1,6.197242845E0,-3.129951389E0,2.436587534E0,7.357946275E0
1.458190158E1,5.847722606E0,-2.419653266E0,2.645416017E0,6.859213330E0
1.459191758E1,6.544836427E0,-2.170388217E0,1.504576442E0,7.057564675E0
1.460193458E1,7.944550511E0,-4.464033401E0,1.102245905E0,9.179238698E0
1.461195158E1,8.829183953E0,-7.861994843E0,1.560369404E0,1.192477274E1
1.462196758E1,6.701226057E0,-8.282437715E0,5.373166677E0,1.193214672E1
1.463198458E1,1.213535814E0,-5.369439662E0,5.476696308E0,7.765162838E0
1.464200158E1,-5.102052922E0,-9.274572802E-1,1.737944666E0,5.469147345E0
1.465201758E1,-1.089071163E1,3.923360081E0,-6.851631646E0,1.345158765E1
1.466203458E1,-1.568502150E1,8.042877290E0,-2.135276623E1,2.768841635E1
1.467205158E1,-1.267088007E1,9.061852850E0,-3.533794016E0,1.597360569E1
1.468206758E1,-9.452022933E0,7.029802154E0,9.754339185E0,1.529398538E1
1.469208458E1,-8.321849703E0,4.598877795E0,9.095688933E0,1.315805520E1
1.470210058E1,-9.791268445E0,-2.150705904E0,5.441239961E0,1.140620734E1
1.471211758E1,-7.411165745E0,-8.758242025E0,4.073444073E0,1.217477424E1
1.472213458E1,-4.472984903E0,-8.389265175E0,3.505139151E0,1.013278662E1
1.473215058E1,-3.213192643E0,-6.439167300E0,3.495458500E0,8.000357030E0
1.474216758E1,-2.704976632E0,-4.147801945E0,3.681413991E0,6.170410727E0
1.475218458E1,-2.673495808E0,-1.518552310E0,3.691169486E0,4.803989293E0
1.476220058E1,-2.406547902E0,1.487467343E-1,2.993883172E0,3.844077892E0
1.477221758E1,-1.986029893E0,9.201055759E-1,2.165303478E0,3.078871248E0
1.478223458E1,-1.907183844E0,9.719095677E-1,1.224679438E0,2.466130197E0
1.479225058E1,-1.578410842E0,1.113213966E0,-2.023967103E-1,1.942058328E0
1.480226758E1,-1.348896225E0,1.314082196E0,-1.510701839E0,2.414239650E0
1.481228458E1,-9.296179725E-1,1.116245162E0,-1.969224118E0,2.447046478E0
1.482230058E1,-4.563043573E-1,5.449879807E-1,-9.944722188E-1,1.222374967E0
1.483231758E1,-1.446495172E-2,3.071209091E-1,3.242988592E-1,4.468805632E-1
1.484233458E1,5.937508357E-1,-8.174641371E-2,9.423056996E-1,1.116764327E0
1.485235058E1,1.098166010E0,-3.670770890E-1,8.788441139E-1,1.453644094E0
1.486236758E1,1.583309201E0,3.705216837E-1,4.241476313E-1,1.680492653E0
1.487238458E1,2.066078568E0,1.269216510E0,4.942706209E-2,2.425290546E0
1.488240058E1,2.395450179E0,1.720368959E0,-1.108550592E-1,2.951294590E0
1.489241758E1,2.623267933E0,1.840205889E0,-1.108379927E-1,3.206271577E0
1.490243458E1,2.701308966E0,1.489179992E0,-8.284101248E-2,3.085707344E0
1.491245058E1,2.463953526E0,8.016333854E-1,-1.794020049E-1,2.597280913E0
1.492246825E1,1.895288707E0,8.153948075E-1,-2.927467719E-1,2.083911862E0
1.493248525E1,1.299696291E0,1.051131154E0,-3.123817952E-1,1.700490969E0
1.494250125E1,9.514897019E-1,1.627644398E0,-4.786431330E-1,1.945162766E0
1.495251825E1,1.135069104E0,2.553755649E0,-9.202202544E-1,2.942253405E0
1.496253525E1,2.018994594E0,2.975125304E0,-9.109892551E-1,3.709125392E0
1.497255125E1,2.174834586E0,2.800949029E0,-8.354057336E-1,3.643229842E0
1.498256825E1,1.926055294E0,2.290147964E0,-8.477388270E-1,3.110165239E0
1.499258525E1,1.627171943E0,1.796849370E0,-8.140582801E-1,2.557156052E0
1.500260125E1,1.241676709E0,1.480515003E0,-7.399126621E-1,2.069095569E0
1.501261825E1,1.430121214E0,1.191826272E0,-5.403442682E-1,1.938470654E0
1.502263525E1,1.683813336E0,8.083682084E-1,-4.455638261E-1,1.920211872E0
1.503265125E1,1.679185557E0,9.239910507E-1,-5.488415882E-1,1.993652599E0
1.504266825E1,1.068190259E0,1.002720886E0,-8.676981515E-1,1.702756497E0
1.505268525E1,2.686386653E-1,8.377674240E-1,-1.700672613E0,1.914760644E0
1.506270125E1,4.654948647E-1,2.473465776E-1,-2.840052284E0,2.888557213E0
1.507271825E1,1.192034579E0,-9.731234497E-1,-3.891962287E0,4.185126776E0
1.508273525E1,2.046807607E0,-2.240468266E0,-5.254521993E0,6.067876137E0
1.509275125E1,2.962597645E0,-3.018389438E0,-5.703785207E0,7.100762303E0
1.510276825E1,3.751595782E0,-2.962849075E0,-4.345288730E0,6.460222883E0
1.511278525E1,4.457210870E0,-2.590555100E0,-3.113869499E0,6.022780730E0
1.512280125E1,4.707774001E0,-2.033704873E0,-3.191391300E0,6.040204465E0
1.513281825E1,4.470394879E0,-1.626149265E0,-4.424604456E0,6.496608069E0
1.514283525E1,4.179163194E0,-1.712838914E0,-4.708649914E0,6.524615403E0
1.515285125E1,4.574129747E0,-2.219400748E0,-3.592049825E0,6.225048158E0
1.516286825E1,5.908698540E0,-3.058140564E0,-2.639449518E0,7.157627813E0
1.517288525E1,6.073903432E0,-3.568241132E0,-2.387472676E0,7.438055758E0
1.518290125E1,4.757888147E0,-3.177847686E0,-2.805174520E0,6.372222503E0
1.519291825E1,4.316907223E0,-2.276740884E0,-3.238179842E0,5.857050940E0
1.520293525E1,4.557056170E0,-1.183675838E0,-3.585446565E0,5.918046679E0
1.521295125E1,3.490017081E0,-4.393317175E-1,-3.451803188E0,4.928303647E0
1.522296825E1,3.390568222E0,-5.060133648E-1,-1.871164557E0,3.905542113E0
1.523298525E1,3.025900479E0,-1.060306605E0,-6.583859575E-1,3.273193528E0
1.524300125E1,1.419710100E0,-1.589680765E0,7.774966639E-1,2.268735940E0
1.525301825E1,-1.323304570E-1,-3.203004747E0,1.767791632E0,3.660852088E0
1.526303525E1,-1.322880794E0,-5.341543765E0,3.208339747E0,6.369893823E0
1.527305125E1,-2.462930556E0,-6.847262022E0,4.975546657E0,8.815162429E0
1.528306825E1,-2.443839981E0,-8.103417022E0,5.654645791E0,1.017903435E1
1.529308525E1,-1.054747072E0,-9.030602406E0,5.593267568E0,1.067468563E1
1.530310125E1,-1.550915187E0,-7.934005643E0,5.980007089E0,1.005555907E1
1.531311825E1,-3.554292892E-1,-6.524272354E0,2.819601063E0,7.116362124E0
1.532313525E1,-9.545652643E-2,-5.990667148E0,-1.859412239E0,6.273325968E0
1.533315125E1,-2.174110408E0,-5.351816154E0,-2.791997527E0,6.415913216E0
1.534316825E1,-3.840026733E0,-4.843358653E0,-2.960849620E0,6.853507045E0
1.535318525E1,-4.163178953E0,-3.577002016E0,-1.835814046E0,5.787677913E0
1.536320125E1,-3.835189916E0,-2.247954456E0,8.641763735E-1,4.528662245E0
1.537321825E1,-4.152972638E0,-1.424753031E0,3.166216990E0,5.413135224E0
1.538323525E1,-4.509349322E0,9.155394852E-2,2.963766503E0,5.396899603E0
1.539325125E1,-4.629028378E0,1.454193177E0,3.150330105E0,5.785080924E0
1.540326825E1,-4.026366386E0,2.531065528E0,4.071666520E0,6.260701816E0
1.541328525E1,-2.412878097E0,3.400649407E0,3.851905936E0,5.676581404E0
1.542330125E1,-2.266381079E0,3.516892639E0,2.787827293E0,5.027623499E0
1.543331825E1,-2.266041356E0,3.695384159E0,2.165524503E0,4.845647932E0
1.544333525E1,-2.206594761E0,3.677826140E0,1.588105087E0,4.573570085E0
1.545335125E1,-2.110850990E0,3.596787239E0,1.292518980E0,4.366139675E0
1.546336825E1,-2.201919035E0,3.904960647E0,1.896573633E0,4.867664393E0
1.547338525E1,-3.101435103E0,4.139710568E0,2.120527547E0,5.590415044E0
1.548340125E1,-3.569661129E0,5.033966773E0,2.727924615E0,6.747212369E0
1.549341825E1,-4.078366844E0,5.597019727E0,3.330554155E0,7.684549233E0
1.550343525E1,-5.166634834E0,5.940695674E0,3.653285376E0,8.679428243E0
1.551345125E1,-6.370304056E0,5.962809259E0,3.339230254E0,9.342715168E0
1.552346825E1,-6.885090584E0,5.910777225E0,3.001391874E0,9.557725301E0
1.553348525E1,-6.977183061E0,5.903801497E0,2.827920481E0,9.567292711E0
1.554350125E1,-6.695541394E0,5.702036889E0,3.018890837E0,9.298236452E0
1.555351825E1,-5.805991028E0,5.473162835E0,3.263252703E0,8.620548790E0
1.556353525E1,-4.410179668E0,5.279495451E0,2.844075168E0,7.443891488E0
1.557355125E1,-2.773914428E0,4.808570643E0,1.453340799E0,5.738392838E0
1.558356825E1,-1.692402750E0,3.400761673E0,6.106992826E-2,3.799096809E0
1.559358525E1,-3.201428045E-1,1.379922429E0,-1.280967367E0,1.909857251E0
1.560360125E1,1.876569431E0,-7.901617330E-1,-3.199090329E0,3.792103285E0
1.561361825E1,4.406287176E0,-4.131102882E0,-6.979313786E0,9.229962006E0
1.562363525E1,7.555110161E0,-8.316444536E0,-1.180302813E1,1.629584034E1
1.563365125E1,8.401469484E0,-9.551605108E0,-9.587167289E0,1.592895559E1
1.564366825E1,6.972066162E0,-7.122638982E0,-2.812483539E0,1.035624238E1
1.565368525E1,6.141039993E0,-3.503938717E0,-6.507937865E-1,7.100245861E0
1.566370125E1,5.887580736E0,-1.415699787E0,-1.518422502E0,6.242869509E0
1.567371825E1,5.829930698E0,-7.929678118E-1,-2.150871234E0,6.264434289E0
1.568373525E1,4.857156035E0,-5.428408831E-1,-7.995507534E-1,4.952365332E0
1.569375125E1,3.350849841E0,-5.556036007E-1,9.764265418E-1,3.534161684E0
1.570376825E1,2.543415140E0,-5.749461901E-1,9.532435012E-1,2.776363966E0
1.571378525E1,2.394655542E0,-8.011854887E-1,-5.986345764E-1,2.595117860E0
1.572380125E1,2.709489806E0,-1.552678415E0,-1.891918080E0,3.651232571E0
1.573381825E1,2.777744354E0,-1.874574654E0,-6.013592327E-1,3.404633131E0
1.574383525E1,1.040331054E0,-1.523040048E0,3.965435475E0,4.373398930E0
1.575385125E1,-2.888026057E0,-1.454108393E0,6.566334300E0,7.319280830E0
1.576386825E1,-4.519232286E0,-2.586156825E0,3.283266553E0,6.155607755E0
1.577388525E1,-2.196110996E0,-4.783467962E0,-7.272668595E0,8.977537399E0
1.578390125E1,-1.885715353E0,-5.028881450E0,-8.206119272E0,9.807444342E0
1.579391825E1,-6.337641510E0,-3.200268835E-1,-2.018715097E0,6.659078597E0
1.580393525E1,-9.073571255E0,3.987124552E0,-3.438117195E0,1.049035306E1
1.581395125E1,-7.958708959E0,4.538881270E0,9.616917045E-1,9.212347280E0
1.582396825E1,-6.098448290E0,2.064417374E0,4.904920478E0,8.093894954E0
1.583398525E1,-4.841078823E0,-5.952962548E-1,4.454302465E0,6.605394178E0
1.584400125E1,-3.586087712E0,-2.174834440E0,3.783270149E0,5.648279644E0
1.585401825E1,-3.244048693E0,-3.792392975E0,4.783586075E0,6.912943811E0
1.586403525E1,-3.699556147E0,-4.034096990E0,5.579423701E0,7.816049068E0
1.587405125E1,-3.879297218E0,-2.462091188E0,4.888000975E0,6.708456860E0
1.588406825E1,-3.691414192E0,-6.613861638E-1,3.667588835E0,5.245491231E0
1.589408525E1,-3.143494710E0,3.273698169E-1,2.475383663E0,4.014505482E0
1.590410125E1,-2.341965843E0,8.884768170E-1,1.468803030E0,2.903717859E0
1.591411825E1,-1.596486924E0,9.231320947E-1,4.001085949E-1,1.887069223E0
1.592413521E1,-8.356985329E-1,7.091970921E-1,1.713374702E-1,1.109373283E0
1.593415121E1,-4.606291042E-1,5.384829533E-1,7.459947896E-1,1.028907814E0
1.594416821E1,-2.100539864E-1,9.960030198E-2,1.476138947E0,1.494332322E0
1.595418521E1,-3.117554853E-1,-2.452123439E-1,1.845325127E0,1.887470635E0
1.596420121E1,-7.183236455E-1,9.406357348E-2,1.978521191E0,2.106984318E0
1.597421821E1,-6.502428326E-1,6.645395672E-1,1.619119157E0,1.867076705E0
1.598423521E1,-2.964398734E-1,8.939989275E-1,5.950353228E-2,9.437432655E-1
1.599425121E1,2.761023071E-1,1.462848226E0,-3.242966373E0,3.568331306E0
1.600426821E1,1.239843315E0,2.220986513E0,-3.709060212E0,4.497457080E0
1.601428521E1,2.177966501E0,1.732391419E0,-5.091445488E-1,2.829124649E0
1.602430121E1,2.472682542E0,1.070314114E0,3.611024040E-1,2.718478656E0
1.603431821E1,2.091043547E0,5.876907814E-1,3.393957122E-1,2.198416025E0
1.604433521E1,1.392951926E0,6.560055560E-1,2.055810126E-1,1.553358268E0
1.605435121E1,5.423318099E-1,9.654378694E-1,1.248761342E-1,1.114355473E0
1.606436821E1,6.970201193E-1,1.459346328E0,6.427668750E-2,1.618536452E0
1.607438521E1,1.920256757E0,1.949475147E0,3.028005476E-1,2.753094174E0
1.608440121E1,2.588008930E0,2.183012356E0,3.502288487E-1,3.403820415E0
1.609441821E1,1.906803775E0,2.403116755E0,-1.050500531E-1,3.069512387E0
1.610443521E1,1.024668702E0,2.468700296E0,-6.254544389E-1,2.745108441E0
1.611445121E1,5.891397945E-1,2.173565009E0,-1.138278202E0,2.523320791E0
1.612446821E1,7.770152919E-1,1.993671327E0,-1.446605976E0,2.582856359E0
1.613448521E1,8.814390352E-1,1.747758486E0,-1.482933996E0,2.455745862E0
1.614450121E1,9.276128161E-1,1.099463069E0,-1.525981344E0,2.097117936E0
1.615451821E1,9.941190469E-1,4.250574946E-1,-1.766682415E0,2.071258871E0
1.616453521E1,1.076799700E0,-1.049867570E-2,-2.254484627E0,2.498461276E0
1.617455121E1,1.199867948E0,-2.846278399E-1,-2.840092630E0,3.096259396E0
1.618456821E1,1.468329991E0,-6.630631453E-1,-3.473708320E0,3.829137656E0
1.619458521E1,1.686271359E0,-1.439382180E0,-3.963740367E0,4.541648363E0
1.620460121E1,2.361504899E0,-2.303102471E0,-3.895821157E0,5.104743761E0
1.621461821E1,3.666690118E0,-2.636501936E0,-3.219403263E0,5.546198360E0
1.622463521E1,4.889111946E0,-2.459565775E0,-2.380494609E0,5.968218663E0
1.623465121E1,5.576410046E0,-2.223396735E0,-1.776714191E0,6.260715243E0
1.624466821E1,5.697051553E0,-1.923546254E0,-1.580217193E0,6.217194944E0
1.625468521E1,5.699240751E0,-1.695599568E0,-1.813114716E0,6.216412792E0
1.626470121E1,5.766162719E0,-1.780093004E0,-2.241752607E0,6.437609677E0
1.627471821E1,5.672213750E0,-2.107580935E0,-2.607863151E0,6.589146868E0
1.628473521E1,5.758758389E0,-2.509611509E0,-2.993911239E0,6.958803965E0
1.629475121E1,6.331491408E0,-3.023198773E0,-3.335445936E0,7.768700912E0
1.630476821E1,6.141452807E0,-3.083846678E0,-3.850240649E0,7.877303217E0
1.631478521E1,4.500774673E0,-2.635556442E0,-4.474879401E0,6.872239524E0
1.632480121E1,3.052132842E0,-2.249432632E0,-5.834082806E0,6.957872106E0
1.633481821E1,3.150483302E0,-2.218105590E0,-5.874688795E0,7.025489726E0
1.634483521E1,3.366608087E0,-1.891433930E0,-3.395155948E0,5.141853385E0
1.635485121E1,2.566537077E0,-1.134018359E0,-1.494545397E0,3.179115624E0
1.636486821E1,1.439667963E0,-1.068506155E0,-3.719723779E-1,1.831041424E0
1.637488521E1,5.775141411E-1,-2.136486061E0,4.480949761E-1,2.258070942E0
1.638490121E1,1.160396757E-1,-3.703591311E0,1.347007867E0,3.942649363E0
1.639491821E1,-6.851654012E-1,-4.865718405E0,3.101426332E0,5.810637875E0
1.640493521E1,-1.523204063E0,-4.911341305E0,5.653644748E0,7.642324448E0
1.641495221E1,-6.578933296E-1,-6.407257875E0,6.048680298E0,8.835853691E0
1.642496821E1,2.085647736E-1,-8.577206381E0,4.295828887E0,9.595108879E0
1.643498521E1,5.991698889E-1,-9.313422287E0,1.466056008E0,9.447124402E0
1.644500221E1,-6.483679229E-1,-8.153648697E0,-1.312594664E-1,8.180439908E0
1.645501821E1,-3.009321576E0,-6.955417385E0,-1.463931569E-1,7.579926009E0
1.646503521E1,-3.249480756E0,-6.032308679E0,-3.208378923E-1,6.859359310E0
1.647505221E1,-3.117754097E0,-4.144774842E0,-6.920494013E-1,5.232445076E0
1.648506821E1,-3.924109401E0,-1.971074177E0,1.325889771E-1,4.393329926E0
1.649508521E1,-4.536302648E0,-8.458418441E-1,2.842476540E0,5.419701377E0
1.650510221E1,-4.238091726E0,6.288288671E-1,4.880177400E0,6.494072580E0
1.651511821E1,-4.575342168E0,1.811910628E0,3.163208013E0,5.850013761E0
1.652513521E1,-5.230016897E0,2.081101234E0,1.917000296E0,5.946339145E0
1.653515221E1,-4.778811824E0,2.560867617E0,2.129616752E0,5.824976644E0
1.654516821E1,-3.056320326E0,3.264156682E0,2.796705705E0,5.274218007E0
1.655518521E1,-2.122619096E0,3.675739269E0,2.615115745E0,4.985519166E0
1.656520221E1,-2.122537235E0,3.593466021E0,2.266493053E0,4.749226581E0
1.657521821E1,-2.097554129E0,3.413823768E0,1.480972255E0,4.271674715E0
1.658523521E1,-2.588497758E0,4.118063591E0,1.695273001E-1,4.866981394E0
1.659525221E1,-2.134350365E0,4.659917464E0,8.981454805E-1,5.203551437E0
1.660526821E1,-2.091708960E0,4.426791900E0,2.203741758E0,5.369190873E0
1.661528521E1,-3.645686334E0,3.768232865E0,2.689766270E0,5.892830420E0
1.662530221E1,-4.528407152E0,4.115697223E0,3.131975695E0,6.874205898E0
